subject	session	TrialNumber	image_path	condition	image_nr	category_nr	exemplar_nr	test_image_nr	things_category_nr	things_image_nr	things_exemplar_nr	subcondition	repetition	run	onset	duration	response_mapping_flip_h	response_mapping_flip_v	onset_flip	offset_flip	keypresses	response	response_txt	error	response_confidence	response_time	duration_flip	ran	order	session_trial_time	atypical	atypical_log	exclude_session	delay_days	delay_seconds	trials_since_lastrep
02	ses-008	1	images_fmri/leek/leek_05s.jpg	unseen	4289	358	5	None	911.0	13027.0	5.0	unseen-between	1	5	3.0	2.98	True	False	2.983074903488159	5.962998867034912	[['b', 4.782008171081543]]	-1.0	unseen	False	False	1.782008171081543	2.979923963546753	1.0	0.0	1622655652.3134	False		False			
02	ses-008	2	images_fmri/dishwasher/dishwasher_05s.jpg	seen	2441	204	5	None	492.0	7117.0	5.0	seen-between	2	5	7.47	2.98	False	True	7.465664863586426	10.432201862335203	[['a', 9.458014011383057]]	1.0	seen	False	False	1.988014011383057	2.9665369987487797	1.0	1.0	1622655656.7960	False		False	7.0	0.0	296.0
02	ses-008	3	images_fmri/barrel/barrel_05s.jpg	seen	413	35	5	None	77.0	1140.0	5.0	seen-between-within	3	5	11.94	2.98	True	True	11.932173013687134	14.901453018188477	[['b', 12.850486993789673]]	2.0	seen	False	True	0.9104869937896732	2.9692800045013428	1.0	2.0	1622655661.2625	False		False	0.0	366.6769001483917	61.0
02	ses-008	4	images_fmri/cashew/cashew_05s.jpg	seen	1457	122	5	None	282.0	4127.0	5.0	seen-within	2	5	16.41	2.98	False	False	16.39756488800049	19.3802969455719	[['x', 17.4266459941864]]	2.0	seen	False	True	1.0166459941864012	2.982732057571411	1.0	3.0	1622655665.7279	False		False	0.0	1009.8224000930786	159.0
02	ses-008	5	images_fmri/wrench/wrench_05s.jpg	unseen	8597	717	5	None	1842.0	25932.0	5.0	unseen-within	1	5	20.88	2.98	True	True	20.8669490814209	23.850444078445435	[['b', 21.910115957260132]]	2.0	seen	True	True	1.0301159572601328	2.983494997024536	1.0	4.0	1622655670.1972	False		False			
02	ses-008	6	images_fmri/desk/desk_05s.jpg	unseen	2381	199	5	None	481.0	6955.0	5.0	unseen-between	1	5	25.35	2.98	True	True	25.332892894744877	28.312324047088623	[['x', 26.870861053466797]]	-1.0	unseen	False	False	1.5208610534667957	2.97943115234375	1.0	5.0	1622655674.6632	False		False			
02	ses-008	7	images_fmri/lego/lego_05s.jpg	seen	4313	360	5	None	914.0	13071.0	5.0	seen-between	2	5	29.82	2.98	False	True	29.800273895263672	32.77872395515442	[['x', 32.43273997306824]]	-1.0	unseen	True	False	2.612739973068237	2.978450059890747	1.0	6.0	1622655679.1306	False		False	7.0	0.0	261.0
02	ses-008	8	images_fmri/curtain/curtain_05s.jpg	unseen	2321	194	5	None	466.0	6759.0	5.0	unseen-between	1	5	34.29	2.98	False	True	34.282697916030884	37.25052094459534	[['x', 35.46776795387268]]	-1.0	unseen	False	False	1.1777679538726815	2.967823028564453	1.0	7.0	1622655683.6130	False		False			
02	ses-008	9	images_fmri/glass/glass_05s.jpg	seen	3269	273	5	None	678.0	9712.0	5.0	seen-within-between	3	5	38.76	2.98	False	False	38.74913787841797	41.72870302200317	[['b', 40.99994397163391]]	-1.0	unseen	True	False	2.239943971633913	2.979565143585205	1.0	8.0	1622655688.0794	False		False	7.0	0.0	287.0
02	ses-008	10	images_fmri/kimono/kimono_05s.jpg	unseen	4133	345	5	None	874.0	12511.0	5.0	unseen-within	1	5	43.23	2.98	False	True	43.213648080825806	46.19557905197144	[['x', 44.98355507850647]]	-1.0	unseen	False	False	1.7535550785064729	2.98193097114563	1.0	9.0	1622655692.5439	False		False			
02	ses-008	11	images_fmri/chair/chair_05s.jpg	seen	1541	129	5	None	301.0	4387.0	5.0	seen-within-between	3	5	47.7	2.98	True	False	47.68432807922363	50.66213393211365	[['b', 49.03038811683655]]	-1.0	unseen	True	False	1.330388116836545	2.977805852890014	1.0	10.0	1622655697.0146	False		False	7.0	0.0	589.0
02	ses-008	12	images_fmri/beaver/beaver_05s.jpg	seen	509	43	5	None	108.0	1632.0	5.0	seen-between-within	3	5	52.17	2.98	False	True	52.16575908660889	55.13009095191956	[['b', 53.177348136901855]]	2.0	seen	False	True	1.0073481369018538	2.964331865310669	1.0	11.0	1622655701.4960	False		False	0.0	371.1559000015259	62.0
02	ses-008	13	images_fmri/boot/boot_05s.jpg	seen	857	72	5	None	170.0	2584.0	5.0	seen-between-within	3	5	56.64	2.98	True	True	56.62989091873169	59.6153838634491	[['b', 57.6718430519104]]	2.0	seen	False	True	1.0318430519103998	2.9854929447174072	1.0	12.0	1622655705.9602	False		False	0.0	942.7729001045227	144.0
02	ses-008	14	images_fmri/blackberry/blackberry_05s.jpg	unseen	689	58	5	None	136.0	2080.0	5.0	unseen-within	1	5	61.11	2.98	False	True	61.10020709037781	64.07820796966553	[['x', 62.4386830329895]]	-1.0	unseen	False	False	1.3286830329895023	2.97800087928772	1.0	13.0	1622655710.4305	False		False			
02	ses-008	15	images_fmri/macadamia/macadamia_05s.jpg	seen	4529	378	5	None	952.0	13577.0	5.0	seen-within	2	5	65.58	2.98	True	False	65.56663393974304	68.54485988616943	[['x', 67.29170203208923]]	2.0	seen	False	True	1.711702032089235	2.978225946426392	1.0	14.0	1622655714.8969	False		False	0.0	1375.7980999946594	218.0
02	ses-008	16	images_fmri/wallet/wallet_05s.jpg	seen	8273	690	5	None	1777.0	25051.0	5.0	seen-within	2	5	70.05	2.98	True	False	70.02954697608948	73.01276206970215	[['x', 71.11118006706238]]	2.0	seen	False	True	1.0611800670623808	2.983215093612671	1.0	15.0	1622655719.3598	False		False	0.0	420.3044002056122	73.0
02	ses-008	17	images_fmri/tarp/tarp_05s.jpg	unseen	7565	631	5	None	1629.0	23002.0	5.0	unseen-between	1	5	74.52	2.98	True	True	74.51380705833435	77.48043394088745	[['x', 75.89338707923889]]	-1.0	unseen	False	False	1.3733870792388956	2.9666268825531006	1.0	16.0	1622655723.8441	False		False			
02	ses-008	18	images_fmri/ant/ant_05s.jpg	seen	125	11	5	None	25.0	348.0	5.0	seen-within	2	5	78.99	2.98	False	False	78.98128890991211	81.9615409374237	[['x', 80.27213096618652]]	2.0	seen	False	True	1.2821309661865286	2.9802520275115967	1.0	17.0	1622655728.3116	False		False	0.0	920.4251999855042	139.0
02	ses-008	19	images_fmri/wrench/wrench_05s.jpg	seen	8597	717	5	None	1842.0	25932.0	5.0	seen-within	2	5	83.46	2.98	False	True	83.44724297523499	86.43232607841492	[['b', 84.36721014976501]]	2.0	seen	False	True	0.9072101497650208	2.985083103179932	1.0	18.0	1622655732.7775	False		False	0.0	62.580299854278564	14.0
02	ses-008	20	images_fmri/touchpad/touchpad_05s.jpg	unseen	7877	657	5	None	1692.0	23874.0	5.0	unseen-between	1	5	87.92999999999998	2.98	True	False	87.91471290588379	90.89403700828552	[['b', 89.59504318237305]]	-1.0	unseen	False	False	1.6650431823730685	2.9793241024017334	1.0	19.0	1622655737.2450	False		False			
02	ses-008	21	images_fmri/shrimp/shrimp_05s.jpg	unseen	6749	563	5	None	1439.0	20405.0	5.0	unseen-between	1	5	92.4	2.98	True	False	92.37884187698364	95.36067605018616	[['b', 93.86310505867004]]	-1.0	unseen	False	False	1.4631050586700385	2.981834173202514	1.0	20.0	1622655741.7091	False		False			
02	ses-008	22	images_fmri/dice/dice_05s.jpg	seen	2405	201	5	None	487.0	7043.0	5.0	seen-between	2	5	96.87	2.98	False	False	96.86429500579834	99.8315019607544	[['b', 98.30342102050781]]	-1.0	unseen	True	False	1.433421020507808	2.9672069549560547	1.0	21.0	1622655746.1946	False		False	7.0	0.0	440.0
02	ses-008	23	images_fmri/coconut/coconut_05s.jpg	seen	1877	157	5	None	376.0	5417.0	5.0	seen-between-within	3	5	101.34	2.98	False	True	101.33122897148132	104.31360292434692	[['b', 102.52925896644592]]	2.0	seen	False	True	1.1892589664459194	2.9823739528656006	1.0	22.0	1622655750.6615	False		False	0.0	460.56089997291565	82.0
02	ses-008	24	images_fmri/diaper/diaper_05s.jpg	seen	2393	200	5	None	486.0	7031.0	5.0	seen-between-within	3	5	105.81	2.98	False	True	105.7974729537964	108.78019499778748	[['b', 106.97030997276306]]	2.0	seen	False	True	1.1603099727630592	2.982722043991089	1.0	23.0	1622655755.1278	False		False	0.0	1469.6633999347687	239.0
02	ses-008	25	images_fmri/strawberry/strawberry_05n.jpg	seen	7289	608	5	None	1571.0	22186.0	5.0	seen-between	2	5	110.28	2.98	False	False	110.26092505455016	113.24362993240356	[['b', 112.37095212936401]]	-1.0	unseen	True	False	2.0909521293640125	2.9827048778533936	1.0	24.0	1622655759.5912	False		False	7.0	0.0	431.0
02	ses-008	26	images_fmri/bus/bus_05n.jpg	seen	1181	99	5	None	227.0	3384.0	5.0	seen-between	2	5	114.75	2.98	True	False	114.73206686973572	117.71184396743774	[['y', 116.6370279788971]]	1.0	seen	False	False	1.8870279788970947	2.9797770977020264	1.0	25.0	1622655764.0624	False		False	7.0	0.0	336.0
02	ses-008	27	images_fmri/rat/rat_05s.jpg	seen	6149	513	5	None	1286.0	18305.0	5.0	seen-between	2	5	119.22	2.98	False	False	119.21522903442384	122.17952609062196	[['b', 121.2725510597229]]	-1.0	unseen	True	False	2.052551059722901	2.96429705619812	1.0	26.0	1622655768.5455	False		False	7.0	0.0	526.0
02	ses-008	28	images_fmri/clipboard/clipboard_05s.jpg	seen	1805	151	5	None	356.0	5152.0	5.0	seen-within	2	5	123.69	2.98	True	False	123.681823015213	126.66335105895996	[['x', 124.80300498008728]]	2.0	seen	False	True	1.1130049800872823	2.981528043746948	1.0	27.0	1622655773.0121	False		False	0.0	420.32389998435974	73.0
02	ses-008	29	images_fmri/clock/clock_05n.jpg	seen	1817	152	5	None	360.0	5206.0	5.0	seen-within	2	5	128.16	2.98	True	True	128.14711499214172	131.12930989265442	[['b', 129.24207401275635]]	2.0	seen	False	True	1.082074012756351	2.9821949005126958	1.0	28.0	1622655777.4774	False		False	0.0	663.4484000205994	105.0
02	ses-008	30	images_fmri/rhubarb/rhubarb_05s.jpg	seen	6257	522	5	None	1308.0	18622.0	5.0	seen-between-within	3	5	132.63	2.98	True	False	132.61378693580627	135.59843707084656	[['x', 133.60641407966614]]	2.0	seen	False	True	0.9764140796661422	2.984650135040283	1.0	29.0	1622655781.9441	False		False	0.0	1389.197599887848	221.0
02	ses-008	31	images_fmri/scaffolding/scaffolding_05s.jpg	unseen	6461	539	5	None	1371.0	19479.0	5.0	unseen-between	1	5	137.1	2.98	True	True	137.08043694496155	140.05997896194458	[['x', 138.62405109405518]]	-1.0	unseen	False	False	1.5240510940551817	2.979542016983032	1.0	30.0	1622655786.4107	False		False			
02	ses-008	32	images_fmri/raft/raft_05s.jpg	seen	6113	510	5	None	1276.0	18176.0	5.0	seen-between-within	3	5	141.57	2.98	False	True	141.56280994415283	144.52596998214722	[['b', 142.91788601875305]]	2.0	seen	False	True	1.3478860187530586	2.9631600379943848	1.0	31.0	1622655790.8931	False		False	0.0	272.8082001209259	40.0
02	ses-008	33	images_fmri/pea/pea_05s.jpg	unseen	5393	450	5	None	1129.0	16078.0	5.0	unseen-within	1	5	146.04	2.98	False	True	146.02990698814392	149.0098910331726	[['x', 147.85194301605225]]	-1.0	unseen	False	False	1.811943016052254	2.9799840450286865	1.0	32.0	1622655795.3602	False		False			
02	ses-008	34	images_fmri/trap/trap_05s.jpg	seen	7937	662	5	None	1703.0	24023.0	5.0	seen-between-within	3	5	150.51	2.98	False	True	150.49722409248352	153.48103404045105	[['b', 151.42197513580322]]	2.0	seen	False	True	0.9119751358032318	2.9838099479675293	1.0	33.0	1622655799.8275	False		False	0.0	797.5461001396179	135.0
02	ses-008	35	images_fmri/dog/dog_05s.jpg	unseen	2453	205	5	None	496.0	7168.0	5.0	unseen-within	1	5	154.98	2.98	False	False	154.96334195137024	157.94507098197937	[['y', 156.6469211578369]]	-2.0	unseen	False	True	1.6669211578369243	2.981729030609131	1.0	34.0	1622655804.2936	False		False			
02	ses-008	36	images_fmri/dishwasher/dishwasher_05s.jpg	seen	2441	204	5	None	492.0	7117.0	5.0	seen-between-within	3	5	159.45	2.98	False	False	159.43108892440796	162.40893006324768	[['x', 160.80378317832947]]	2.0	seen	False	True	1.3537831783294791	2.9778411388397217	1.0	35.0	1622655808.7614	False		False	0.0	151.96539998054504	34.0
02	ses-008	37	images_fmri/parsley/parsley_05s.jpg	seen	5369	448	5	None	1123.0	15996.0	5.0	seen-between	2	5	163.92	2.98	False	False	163.9098789691925	166.87911701202393	[['b', 166.003103017807]]	-1.0	unseen	True	False	2.08310301780702	2.969238042831421	1.0	36.0	1622655813.2402	False		False	7.0	0.0	581.0
02	ses-008	38	images_fmri/bowl/bowl_05s.jpg	seen	893	75	5	None	178.0	2706.0	5.0	seen-within	2	5	168.39	2.98	False	True	168.38116693496704	171.3588728904724	[['a', 169.8120081424713]]	1.0	seen	False	False	1.4220081424713271	2.977705955505371	1.0	37.0	1622655817.7115	False		False	0.0	833.3125998973846	143.0
02	ses-008	39	images_fmri/powder/powder_05s.jpg	seen	5921	494	5	None	1237.0	17594.0	5.0	seen-within-between	3	5	172.86	2.98	True	False	172.84592008590698	175.82544708251953	[['x', 174.15578413009644]]	2.0	seen	False	True	1.295784130096422	2.979526996612549	1.0	38.0	1622655822.1762	False		False	7.0	0.0	400.0
02	ses-008	40	images_fmri/pothole/pothole_05s.jpg	seen	5909	493	5	None	1234.0	17550.0	5.0	seen-within-between	3	5	177.32999999999996	2.98	True	True	177.30985498428345	180.2971179485321	[['b', 178.51353406906128]]	2.0	seen	False	True	1.1835340690613236	2.987262964248657	1.0	39.0	1622655826.6401	False		False	7.0	0.0	498.0
02	ses-008	41	images_fmri/fig/fig_05s.jpg	seen	2909	243	5	None	582.0	8423.0	5.0	seen-between-within	3	5	181.8	2.98	True	False	181.79540395736691	184.76417803764343	[['x', 182.96147418022156]]	2.0	seen	False	True	1.1614741802215462	2.9687740802764893	1.0	40.0	1622655831.1257	False		False	0.0	487.36910009384155	88.0
02	ses-008	42	images_fmri/cake/cake_05s.jpg	unseen	1241	104	5	None	238.0	3534.0	5.0	unseen-within	1	5	186.27	2.98	True	False	186.26198291778564	189.24174404144287	[['b', 188.35790514945984]]	-1.0	unseen	False	False	2.0879051494598286	2.9797611236572266	1.0	41.0	1622655835.5923	False		False			
02	ses-008	43	images_fmri/honeycomb/honeycomb_05s.jpg	seen	3797	317	5	None	790.0	11299.0	5.0	seen-within-between	3	5	190.74	2.98	False	True	190.72830295562744	193.70850491523743	[['a', 192.27441906929016]]	1.0	seen	False	False	1.534419069290152	2.9802019596099854	1.0	42.0	1622655840.0586	False		False	7.0	0.0	371.0
02	ses-008	44	images_fmri/battery/battery_05n.jpg	seen	449	38	5	None	98.0	1473.0	5.0	seen-within	2	5	195.21	2.98	False	True	195.195837020874	198.1784689426422	[['b', 196.09561800956726]]	2.0	seen	False	True	0.8856180095672528	2.9826319217681885	1.0	43.0	1622655844.5261	False		False	0.0	708.1532998085022	115.0
02	ses-008	45	images_fmri/birdcage/birdcage_05s.jpg	unseen	653	55	5	None	131.0	2013.0	5.0	unseen-within	1	5	199.68	2.98	False	False	199.66241908073425	202.641597032547	[['b', 201.89499497413635]]	-1.0	unseen	False	False	2.2149949741363457	2.979177951812744	1.0	44.0	1622655848.9927	False		False			
02	ses-008	46	images_fmri/shirt/shirt_05s.jpg	seen	6677	557	5	None	1423.0	20184.0	5.0	seen-within	2	5	204.15	2.98	True	True	204.14532589912412	207.1105239391327	[['b', 205.68489503860474]]	2.0	seen	False	True	1.5348950386047306	2.965198040008545	1.0	45.0	1622655853.4756	False		False	0.0	469.4921998977661	84.0
02	ses-008	47	images_fmri/lego/lego_05s.jpg	seen	4313	360	5	None	914.0	13071.0	5.0	seen-between-within	3	5	208.62	2.98	False	False	208.60906386375427	211.59394907951355	[['x', 209.57723116874695]]	2.0	seen	False	True	0.9572311687469436	2.9848852157592773	1.0	46.0	1622655857.9393	False		False	0.0	178.80870008468628	40.0
02	ses-008	48	images_fmri/cake/cake_05s.jpg	seen	1241	104	5	None	238.0	3534.0	5.0	seen-within	2	5	213.09	2.98	True	True	213.07954597473145	216.0632770061493	[['b', 214.10973811149597]]	2.0	seen	False	True	1.0197381114959685	2.9837310314178467	1.0	47.0	1622655862.4098	False		False	0.0	26.817500114440918	6.0
02	ses-008	49	images_fmri/cranberry/cranberry_05s.jpg	seen	2117	177	5	None	431.0	6222.0	5.0	seen-within-between	3	5	217.56	2.98	True	False	217.5451140403748	220.5282440185547	[['x', 218.6028711795807]]	2.0	seen	False	True	1.0428711795806862	2.983129978179932	1.0	48.0	1622655866.8754	False		False	7.0	0.0	538.0
02	ses-008	50	images_fmri/extinguisher/extinguisher_05s.jpg	unseen	2801	234	5	None	564.0	8163.0	5.0	unseen-between	1	5	222.03	2.98	True	False	222.0119330883026	224.99060893058777	[['y', 223.9963080883026]]	1.0	seen	True	False	1.9663080883026112	2.978675842285156	1.0	49.0	1622655871.3422	False		False			
02	ses-008	51	images_fmri/crayfish/crayfish_05s.jpg	seen	2153	180	5	None	435.0	6287.0	5.0	seen-within-between	3	5	226.5	2.98	True	True	226.49266290664676	229.46089792251587	[['y', 229.12236905097961]]	1.0	seen	False	False	2.6223690509796143	2.9682350158691406	1.0	50.0	1622655875.8229	False		False	7.0	0.0	422.0
02	ses-008	52	images_fmri/lollipop/lollipop_05s.jpg	unseen	4517	377	5	None	946.0	13496.0	5.0	unseen-between	1	5	230.97	2.98	False	False	230.96005702018735	233.94059991836548	[['b', 232.56694316864014]]	-1.0	unseen	False	False	1.596943168640138	2.9805428981781006	1.0	51.0	1622655880.2903	False		False			
02	ses-008	53	images_fmri/potato/potato_05n.jpg	unseen	5897	492	5	None	1232.0	17522.0	5.0	unseen-between	1	5	235.44	2.98	False	False	235.42769289016724	238.40706992149356	[['b', 237.37888503074646]]	-1.0	unseen	False	False	1.9388850307464625	2.979377031326294	1.0	52.0	1622655884.7580	False		False			
02	ses-008	54	images_fmri/leggings/leggings_05s.jpg	seen	4301	359	5	None	913.0	13059.0	5.0	seen-within-between	3	5	239.91	2.98	True	True	239.8944220542908	242.8734920024872	[['b', 241.3695249557495]]	2.0	seen	False	True	1.4595249557495151	2.979069948196411	1.0	53.0	1622655889.2247	False		False	7.0	0.0	351.0
02	ses-008	55	images_fmri/table/table_05s.jpg	unseen	7481	624	5	None	1609.0	22729.0	5.0	unseen-between	1	5	244.38	2.98	False	True	244.3623158931732	247.3437728881836	[['a', 246.270663022995]]	1.0	seen	True	False	1.890663022995	2.981456995010376	1.0	54.0	1622655893.6926	False		False			
02	ses-008	56	images_fmri/padlock/padlock_05s.jpg	unseen	5237	437	5	None	1096.0	15605.0	5.0	unseen-within	1	5	248.85	2.98	False	False	248.8439199924469	251.80684995651245	[['b', 250.252690076828]]	-1.0	unseen	False	False	1.4026900768280086	2.962929964065552	1.0	55.0	1622655898.1742	False		False			
02	ses-008	57	images_fmri/blackberry/blackberry_05s.jpg	seen	689	58	5	None	136.0	2080.0	5.0	seen-within	2	5	253.32	2.98	True	True	253.31043887138367	256.2923729419708	[['b', 254.5104100704193]]	2.0	seen	False	True	1.1904100704193183	2.981934070587158	1.0	56.0	1622655902.6407	False		False	0.0	192.21020007133484	43.0
02	ses-008	58	images_fmri/garter/garter_05s.jpg	unseen	3197	267	5	None	660.0	9479.0	5.0	unseen-between	1	5	257.79	2.98	True	False	257.7746949195862	260.7570090293884	[['y', 260.35124802589417]]	1.0	seen	True	False	2.561248025894145	2.982314109802246	1.0	57.0	1622655907.1050	False		False			
02	ses-008	59	images_fmri/jellyfish/jellyfish_05s.jpg	seen	4013	335	5	None	846.0	12095.0	5.0	seen-between	2	5	262.26	2.98	True	False	262.244677066803	265.2232210636139	[['b', 264.25316309928894]]	-1.0	unseen	True	False	1.9931630992889493	2.978543996810913	1.0	58.0	1622655911.5750	False		False	7.0	0.0	571.0
02	ses-008	60	images_fmri/jellyfish/jellyfish_05s.jpg	seen	4013	335	5	None	846.0	12095.0	5.0	seen-between-within	3	5	266.73	2.98	True	True	266.7093629837036	269.6937868595124	[['b', 267.6933259963989]]	2.0	seen	False	True	0.9633259963989076	2.984423875808716	1.0	59.0	1622655916.0396	False		False	0.0	4.464599847793579	1.0
