subject	session	TrialNumber	image_path	condition	image_nr	category_nr	exemplar_nr	test_image_nr	things_category_nr	things_image_nr	things_exemplar_nr	subcondition	repetition	run	onset	duration	response_mapping_flip_h	response_mapping_flip_v	onset_flip	offset_flip	keypresses	response	response_txt	error	response_confidence	response_time	duration_flip	ran	order	session_trial_time	atypical	atypical_log	exclude_session	delay_days	delay_seconds	trials_since_lastrep
02	ses-001	1	images_fmri/hula_hoop/hula_hoop_03s.jpg	unseen	3891	325	3	None	811.0	11596.0	3.0	unseen-between	1	2	3.0	2.98	False	True	2.98323392868042	5.964339017868042	[['y', 4.658507823944092]]	-2.0	unseen	False	True	1.6585078239440918	2.981105089187622	1.0	0.0	1618412851.2979	False		False			
02	ses-001	2	images_fmri/thermostat/thermostat_03s.jpg	unseen	7659	639	3	None	1649.0	23284.0	3.0	unseen-within	1	2	7.47	2.98	False	False	7.451366901397705	10.430999994277954	[['y', 9.276171922683716]]	-2.0	unseen	False	True	1.806171922683716	2.979633092880249	1.0	1.0	1618412855.7661	False		False			
02	ses-001	3	images_fmri/airplane/airplane_03n.jpg	unseen	39	4	3	None	11.0	152.0	3.0	unseen-within	1	2	11.94	2.98	False	True	11.91935896873474	14.89788007736206	[['y', 13.374191999435425]]	-2.0	unseen	False	True	1.4341919994354253	2.97852110862732	1.0	2.0	1618412860.2341	False		False			
02	ses-001	4	images_fmri/limousine/limousine_03s.jpg	unseen	4407	368	3	None	932.0	13307.0	3.0	unseen-between	1	2	16.41	2.98	True	False	16.38518786430359	19.36705207824707	[['a', 17.986403942108154]]	-2.0	unseen	False	True	1.5764039421081542	2.981864213943481	1.0	3.0	1618412864.6999	False		False			
02	ses-001	5	images_fmri/milk/milk_03s.jpg	unseen	4779	399	3	None	1002.0	14262.0	3.0	unseen-within	1	2	20.88	2.98	False	False	20.86624789237976	23.8334219455719	[['y', 22.269301891326904]]	-2.0	unseen	False	True	1.3893018913269053	2.9671740531921387	1.0	4.0	1618412869.1810	False		False			
02	ses-001	6	images_fmri/soy_sauce/soy_sauce_03s.jpg	unseen	6999	584	3	None	1501.0	21235.0	3.0	unseen-between	1	2	25.35	2.98	False	True	25.33424687385559	28.3152539730072	[['y', 27.003902912139893]]	-2.0	unseen	False	True	1.6539029121398912	2.9810070991516118	1.0	5.0	1618412873.6490	False		False			
02	ses-001	7	images_fmri/pogo_stick/pogo_stick_03s.jpg	unseen	5775	482	3	None	1209.0	17179.0	3.0	unseen-between	1	2	29.82	2.98	False	True	29.80045485496521	32.780717849731445	[['y', 31.260130882263184]]	-2.0	unseen	False	True	1.4401308822631833	2.980262994766236	1.0	6.0	1618412878.1152	False		False			
02	ses-001	8	images_fmri/game/game_03s.jpg	unseen	3147	263	3	None	655.0	9409.0	3.0	unseen-within	1	2	34.29	2.98	True	True	34.267263889312744	37.24678301811218	[['a', 35.767926931381226]]	-2.0	unseen	False	True	1.4779269313812264	2.9795191287994385	1.0	7.0	1618412882.5820	False		False			
02	ses-001	9	images_fmri/jeans/jeans_03s.jpg	unseen	3999	334	3	None	843.0	12048.0	3.0	unseen-within	1	2	38.76	2.98	False	False	38.73498702049256	41.71602892875672	[['y', 40.32992887496948]]	-2.0	unseen	False	True	1.5699288749694844	2.98104190826416	1.0	8.0	1618412887.0497	False		False			
02	ses-001	10	images_fmri/beaver/beaver_03s.jpg	unseen	507	43	3	None	108.0	1630.0	3.0	unseen-between	1	2	43.23	2.98	True	True	43.21560287475586	46.18409490585327	[['a', 44.51221585273743]]	-2.0	unseen	False	True	1.28221585273743	2.968492031097412	1.0	9.0	1618412891.5303	False		False			
02	ses-001	11	images_fmri/mask/mask_03s.jpg	unseen	4671	390	3	None	981.0	13979.0	3.0	unseen-within	1	2	47.7	2.98	True	False	47.68341684341431	50.665509939193726	[['a', 48.91154479980469]]	-2.0	unseen	False	True	1.2115447998046849	2.982093095779419	1.0	10.0	1618412895.9981	False		False			
02	ses-001	12	images_fmri/beachball/beachball_03s.jpg	seen	459	39	3	None	100.0	1497.0	3.0	seen-within	2	2	52.17	2.98	True	False	52.15152907371521	55.12977695465088	[['x', 53.35422897338867]]	2.0	seen	False	True	1.1842289733886702	2.978247880935669	1.0	11.0	1618412900.4662	False		False	0.0	173.31360006332397	15.0
02	ses-001	13	images_fmri/beetle/beetle_03s.jpg	seen	567	48	3	None	116.0	1768.0	3.0	seen-within	2	2	56.64	2.98	True	False	56.61672306060791	59.600297927856445	[['x', 57.727935791015625]]	2.0	seen	False	True	1.0879357910156244	2.983574867248535	1.0	12.0	1618412904.9314	False		False	0.0	249.29390001296997	32.0
02	ses-001	14	images_fmri/thermostat/thermostat_03s.jpg	seen	7659	639	3	None	1649.0	23284.0	3.0	seen-within	2	2	61.11	2.98	True	True	61.09937787055969	64.06784892082214	[['b', 62.199585914611816]]	2.0	seen	False	True	1.089585914611817	2.968471050262451	1.0	13.0	1618412909.4141	False		False	0.0	53.64800000190735	12.0
02	ses-001	15	images_fmri/kale/kale_03s.jpg	unseen	4059	339	3	None	861.0	12308.0	3.0	unseen-within	1	2	65.58	2.98	False	False	65.56303596496582	68.52936601638794	[['y', 66.81794095039368]]	-2.0	unseen	False	True	1.2379409503936785	2.966330051422119	1.0	14.0	1618412913.8777	False		False			
02	ses-001	16	images_fmri/bottle/bottle_03s.jpg	unseen	867	73	3	None	171.0	2598.0	3.0	unseen-within	1	2	70.05	2.98	False	False	70.03015494346619	73.01285099983215	[['y', 71.13074994087219]]	-2.0	unseen	False	True	1.0807499408721952	2.982696056365967	1.0	15.0	1618412918.3449	False		False			
02	ses-001	17	images_fmri/gearshift/gearshift_03n.jpg	unseen	3219	269	3	None	669.0	9587.0	3.0	unseen-between	1	2	74.52	2.98	True	False	74.49598288536072	77.47824192047119	[['a', 75.87918996810913]]	-2.0	unseen	False	True	1.3591899681091348	2.9822590351104736	1.0	16.0	1618412922.8107	False		False			
02	ses-001	18	images_fmri/girl/girl_03s.jpg	unseen	3255	272	3	None	677.0	9697.0	3.0	unseen-within	1	2	78.99	2.98	False	True	78.96279096603394	81.94740390777588	[['y', 80.19407892227173]]	-2.0	unseen	False	True	1.2040789222717336	2.984612941741944	1.0	17.0	1618412927.2775	False		False			
02	ses-001	19	images_fmri/mask/mask_03s.jpg	seen	4671	390	3	None	981.0	13979.0	3.0	seen-within	2	2	83.46	2.98	True	False	83.44589400291443	86.41238498687744	[['x', 84.5807797908783]]	2.0	seen	False	True	1.1207797908783022	2.9664909839630127	1.0	18.0	1618412931.7606	False		False	0.0	35.762500047683716	8.0
02	ses-001	20	images_fmri/uniform/uniform_03s.jpg	unseen	8139	679	3	None	1748.0	24631.0	3.0	unseen-between	1	2	87.92999999999998	2.98	True	False	87.91447806358337	90.89785504341124	[['a', 89.12757277488708]]	-2.0	unseen	False	True	1.1975727748871066	2.983376979827881	1.0	19.0	1618412936.2292	False		False			
02	ses-001	21	images_fmri/mosquito/mosquito_03s.jpg	unseen	4887	408	3	None	1021.0	14543.0	3.0	unseen-between	1	2	92.4	2.98	True	False	92.38411688804626	95.36524701118468	[['a', 93.67682981491089]]	-2.0	unseen	False	True	1.276829814910883	2.981130123138428	1.0	20.0	1618412940.6988	False		False			
02	ses-001	22	images_fmri/boot/boot_03s.jpg	unseen	855	72	3	None	170.0	2582.0	3.0	unseen-within	1	2	96.87	2.98	True	False	96.85071992874146	99.8328149318695	[['a', 98.02579689025879]]	-2.0	unseen	False	True	1.1557968902587843	2.982095003128052	1.0	21.0	1618412945.1654	False		False			
02	ses-001	23	images_fmri/sink/sink_03s.jpg	unseen	6795	567	3	None	1448.0	20531.0	3.0	unseen-within	1	2	101.34	2.98	True	True	101.31588292121889	104.30064392089844	[['a', 102.53488087654114]]	-2.0	unseen	False	True	1.1948808765411345	2.984760999679565	1.0	22.0	1618412949.6306	False		False			
02	ses-001	24	images_fmri/barnacle/barnacle_03s.jpg	unseen	399	34	3	None	76.0	1126.0	3.0	unseen-within	1	2	105.81	2.98	False	True	105.79739785194396	108.76511096954346	[['y', 107.61814379692078]]	-2.0	unseen	False	True	1.808143796920774	2.9677131175994877	1.0	23.0	1618412954.1121	False		False			
02	ses-001	25	images_fmri/noodle/noodle_03s.jpg	unseen	5079	424	3	None	1062.0	15108.0	3.0	unseen-between	1	2	110.28	2.98	False	True	110.26390504837036	113.24513006210329	[['y', 111.35456895828247]]	-2.0	unseen	False	True	1.0745689582824696	2.98122501373291	1.0	24.0	1618412958.5786	False		False			
02	ses-001	26	images_fmri/honeycomb/honeycomb_03s.jpg	unseen	3795	317	3	None	790.0	11297.0	3.0	unseen-within	1	2	114.75	2.98	True	True	114.73253893852234	117.71196699142456	[['a', 116.19505190849304]]	-2.0	unseen	False	True	1.445051908493042	2.9794280529022217	1.0	25.0	1618412963.0472	False		False			
02	ses-001	27	images_fmri/popcorn/popcorn_03s.jpg	seen	5823	486	3	None	1224.0	17413.0	3.0	seen-within	2	2	119.22	2.98	False	True	119.20019102096558	122.17829585075378	[['b', 120.64228582382202]]	2.0	seen	False	True	1.4222858238220226	2.978104829788208	1.0	26.0	1618412967.5149	False		False	0.0	320.8269999027252	48.0
02	ses-001	28	images_fmri/prism/prism_03s.jpg	unseen	5955	497	3	None	1242.0	17664.0	3.0	unseen-between	1	2	123.69	2.98	True	False	123.66514706611632	126.64737105369568	[['a', 125.7747449874878]]	-2.0	unseen	False	True	2.0847449874877952	2.9822239875793457	1.0	27.0	1618412971.9799	False		False			
02	ses-001	29	images_fmri/railing/railing_03s.jpg	unseen	6123	511	3	None	1278.0	18199.0	3.0	unseen-within	1	2	128.16	2.98	True	False	128.1495180130005	131.1150460243225	[['a', 129.24028778076172]]	-2.0	unseen	False	True	1.0802877807617222	2.965528011322021	1.0	28.0	1618412976.4642	False		False			
02	ses-001	30	images_fmri/jeans/jeans_03s.jpg	seen	3999	334	3	None	843.0	12048.0	3.0	seen-within	2	2	132.63	2.98	False	False	132.61492896080017	135.5967619419098	[['x', 133.83689379692078]]	2.0	seen	False	True	1.206893796920781	2.981832981109619	1.0	29.0	1618412980.9296	False		False	0.0	93.8798999786377	21.0
02	ses-001	31	images_fmri/scarecrow/scarecrow_03s.jpg	unseen	6495	542	3	None	1377.0	19556.0	3.0	unseen-between	1	2	137.1	2.98	False	True	137.08145594596863	140.0609369277954	[['y', 138.7162528038025]]	-2.0	unseen	False	True	1.616252803802496	2.9794809818267822	1.0	30.0	1618412985.3962	False		False			
02	ses-001	32	images_fmri/dice/dice_03s.jpg	seen	2403	201	3	None	487.0	7041.0	3.0	seen-within	2	2	141.57	2.98	False	True	141.54798984527588	144.52745294570923	[['b', 143.145094871521]]	2.0	seen	False	True	1.575094871521003	2.9794631004333496	1.0	31.0	1618412989.8627	False		False	0.0	428.1054000854492	72.0
02	ses-001	33	images_fmri/mailbox/mailbox_03s.jpg	unseen	4551	380	3	None	961.0	13688.0	3.0	unseen-between	1	2	146.04	2.98	True	True	146.01315784454346	148.99913096427915	[['a', 147.21395778656006]]	-2.0	unseen	False	True	1.1739577865600666	2.9859731197357178	1.0	32.0	1618412994.3279	False		False			
02	ses-001	34	images_fmri/broccoli/broccoli_03s.jpg	unseen	1011	85	3	None	202.0	3050.0	3.0	unseen-within	1	2	150.51	2.98	False	False	150.4982409477234	153.46325397491455	[['y', 151.8279299736023]]	-2.0	unseen	False	True	1.317929973602304	2.965013027191162	1.0	33.0	1618412998.8129	False		False			
02	ses-001	35	images_fmri/parsley/parsley_03s.jpg	unseen	5367	448	3	None	1123.0	15994.0	3.0	unseen-within	1	2	154.98	2.98	True	False	154.96449303627014	157.94386887550354	[['a', 156.55251789093018]]	-2.0	unseen	False	True	1.572517890930186	2.9793758392333984	1.0	34.0	1618413003.2792	False		False			
02	ses-001	36	images_fmri/poster/poster_03s.jpg	unseen	5871	490	3	None	1230.0	17492.0	3.0	unseen-between	1	2	159.45	2.98	True	False	159.43060898780823	162.41024899482727	[['a', 161.10224986076355]]	-2.0	unseen	False	True	1.6522498607635612	2.979640007019043	1.0	35.0	1618413007.7453	False		False			
02	ses-001	37	images_fmri/raft/raft_03s.jpg	unseen	6111	510	3	None	1276.0	18174.0	3.0	unseen-between	1	2	163.92	2.98	False	True	163.89762902259827	166.8798599243164	[['y', 165.37335991859436]]	-2.0	unseen	False	True	1.4533599185943729	2.98223090171814	1.0	36.0	1618413012.2123	False		False			
02	ses-001	38	images_fmri/milk/milk_03s.jpg	seen	4779	399	3	None	1002.0	14262.0	3.0	seen-within	2	2	168.39	2.98	False	False	168.36447191238403	171.34367084503174	[['x', 169.86316084861755]]	2.0	seen	False	True	1.4731608486175674	2.979198932647705	1.0	37.0	1618413016.6792	False		False	0.0	147.49819993972778	33.0
02	ses-001	39	images_fmri/kangaroo/kangaroo_03n.jpg	unseen	4071	340	3	None	863.0	12335.0	3.0	unseen-between	1	2	172.86	2.98	True	True	172.8456358909607	175.81338691711426	[['a', 174.10916590690613]]	-2.0	unseen	False	True	1.2491659069061145	2.9677510261535645	1.0	38.0	1618413021.1603	False		False			
02	ses-001	40	images_fmri/thimble/thimble_03n.jpg	unseen	7671	640	3	None	1650.0	23300.0	3.0	unseen-between	1	2	177.32999999999996	2.98	False	False	177.3099009990692	180.29351902008057	[['y', 178.6732039451599]]	-2.0	unseen	False	True	1.3432039451599564	2.9836180210113525	1.0	39.0	1618413025.6246	False		False			
02	ses-001	41	images_fmri/bottle/bottle_03s.jpg	seen	867	73	3	None	171.0	2598.0	3.0	seen-within	2	2	181.8	2.98	True	True	181.7803089618683	184.75986790657043	[['b', 183.57307291030884]]	2.0	seen	False	True	1.7730729103088263	2.9795589447021484	1.0	40.0	1618413030.0950	False		False	0.0	111.75010013580322	25.0
02	ses-001	42	images_fmri/airplane/airplane_03n.jpg	seen	39	4	3	None	11.0	152.0	3.0	seen-within	2	2	186.27	2.98	True	False	186.24686288833615	189.231498003006	[['x', 187.3988218307495]]	2.0	seen	False	True	1.1288218307495017	2.9846351146698	1.0	41.0	1618413034.5616	False		False	0.0	174.3274998664856	39.0
02	ses-001	43	images_fmri/sandpaper/sandpaper_03s.jpg	seen	6435	537	3	None	1357.0	19299.0	3.0	seen-within	2	2	190.74	2.98	False	True	190.72929906845093	193.69285893440247	[['b', 191.78996777534485]]	2.0	seen	False	True	1.0499677753448395	2.963559865951538	1.0	42.0	1618413039.0440	False		False	0.0	508.5694999694824	90.0
02	ses-001	44	images_fmri/frog/frog_03s.jpg	unseen	3123	261	3	None	645.0	9284.0	3.0	unseen-within	1	2	195.21	2.98	False	False	195.19496297836304	198.16333484649655	[['y', 196.27060389518738]]	-2.0	unseen	False	True	1.06060389518737	2.968371868133545	1.0	43.0	1618413043.5097	False		False			
02	ses-001	45	images_fmri/game/game_03s.jpg	seen	3147	263	3	None	655.0	9409.0	3.0	seen-within	2	2	199.68	2.98	True	True	199.6631679534912	202.6448459625244	[['b', 200.76976084709167]]	2.0	seen	False	True	1.089760847091668	2.981678009033203	1.0	44.0	1618413047.9779	False		False	0.0	165.39590001106262	37.0
02	ses-001	46	images_fmri/doll/doll_03s.jpg	unseen	2463	206	3	None	500.0	7221.0	3.0	unseen-within	1	2	204.15	2.98	False	True	204.13103103637692	207.10938692092896	[['y', 205.64694094657898]]	-2.0	unseen	False	True	1.4969409465789738	2.978355884552002	1.0	45.0	1618413052.4457	False		False			
02	ses-001	47	images_fmri/windowsill/windowsill_03s.jpg	unseen	8487	708	3	None	1820.0	25622.0	3.0	unseen-within	1	2	208.62	2.98	False	False	208.59638285636905	211.5757820606232	[['y', 209.88591694831848]]	-2.0	unseen	False	True	1.265916948318477	2.9793992042541504	1.0	46.0	1618413056.9111	False		False			
02	ses-001	48	images_fmri/tie/tie_03s.jpg	seen	7707	643	3	None	1659.0	23416.0	3.0	seen-within	2	2	213.09	2.98	True	True	213.0779449939728	216.0476200580597	[['b', 214.2989649772644]]	2.0	seen	False	True	1.2089649772644009	2.969675064086914	1.0	47.0	1618413061.3927	False		False	0.0	320.8239998817444	48.0
02	ses-001	49	images_fmri/rat/rat_03s.jpg	unseen	6147	513	3	None	1286.0	18303.0	3.0	unseen-between	1	2	217.56	2.98	False	False	217.5446350574493	220.52579188346863	[['y', 219.0925178527832]]	-2.0	unseen	False	True	1.5325178527832009	2.981156826019287	1.0	48.0	1618413065.8593	False		False			
02	ses-001	50	images_fmri/turtle/turtle_03s.jpg	unseen	8055	672	3	None	1737.0	24476.0	3.0	unseen-between	1	2	222.03	2.98	True	True	222.01424288749692	224.9944999217987	[['a', 223.242830991745]]	-2.0	unseen	False	True	1.212830991744994	2.980257034301758	1.0	49.0	1618413070.3289	False		False			
02	ses-001	51	images_fmri/strainer/strainer_03s.jpg	unseen	7275	607	3	None	1567.0	22123.0	3.0	unseen-between	1	2	226.5	2.98	True	True	226.4791350364685	229.4629280567169	[['a', 227.78654384613037]]	-2.0	unseen	False	True	1.286543846130371	2.983793020248413	1.0	50.0	1618413074.7938	False		False			
02	ses-001	52	images_fmri/kale/kale_03s.jpg	seen	4059	339	3	None	861.0	12308.0	3.0	seen-within	2	2	230.97	2.98	False	False	230.94592595100403	233.92869400978088	[['x', 232.2341079711914]]	2.0	seen	False	True	1.2641079711914074	2.9827680587768555	1.0	51.0	1618413079.2606	False		False	0.0	165.38289999961853	37.0
02	ses-001	53	images_fmri/barrel/barrel_03s.jpg	unseen	411	35	3	None	77.0	1138.0	3.0	unseen-between	1	2	235.44	2.98	True	False	235.42745089530945	238.3969280719757	[['a', 236.5527060031891]]	-2.0	unseen	False	True	1.1127060031890892	2.96947717666626	1.0	52.0	1618413083.7422	False		False			
02	ses-001	54	images_fmri/doll/doll_03s.jpg	seen	2463	206	3	None	500.0	7221.0	3.0	seen-within	2	2	239.91	2.98	True	True	239.8958978652954	242.87641096115112	[['b', 241.62482690811157]]	2.0	seen	False	True	1.7148269081115757	2.980513095855713	1.0	53.0	1618413088.2106	False		False	0.0	35.76489996910095	8.0
02	ses-001	55	images_fmri/stove1/stove1_03s.jpg	unseen	7263	606	3	None	1564.0	22085.0	3.0	unseen-within	1	2	244.38	2.98	True	False	244.36215591430664	247.3437418937683	[['a', 245.57193779945374]]	-2.0	unseen	False	True	1.19193779945374	2.98158597946167	1.0	54.0	1618413092.6769	False		False			
02	ses-001	56	images_fmri/boot/boot_03s.jpg	seen	855	72	3	None	170.0	2582.0	3.0	seen-within	2	2	248.85	2.98	False	True	248.82758593559265	251.80816197395325	[['b', 250.32551193237305]]	2.0	seen	False	True	1.4755119323730526	2.980576038360596	1.0	55.0	1618413097.1423	False		False	0.0	151.97689986228943	34.0
02	ses-001	57	images_fmri/girl/girl_03s.jpg	seen	3255	272	3	None	677.0	9697.0	3.0	seen-within	2	2	253.32	2.98	True	True	253.29639291763303	256.2793679237366	[['b', 254.43934988975525]]	2.0	seen	False	True	1.1193498897552558	2.982975006103516	1.0	56.0	1618413101.6111	False		False	0.0	174.3336000442505	39.0
02	ses-001	58	images_fmri/sink/sink_03s.jpg	seen	6795	567	3	None	1448.0	20531.0	3.0	seen-within	2	2	257.79	2.98	False	True	257.7781929969788	260.7452609539032	[['b', 259.0295488834381]]	2.0	seen	False	True	1.23954888343809	2.9670679569244385	1.0	57.0	1618413106.0929	False		False	0.0	156.46230006217957	35.0
02	ses-001	59	images_fmri/railing/railing_03s.jpg	seen	6123	511	3	None	1278.0	18199.0	3.0	seen-within	2	2	262.26	2.98	False	False	262.2432498931885	265.2270529270172	[['x', 263.2093470096588]]	2.0	seen	False	True	0.9493470096588226	2.983803033828736	1.0	58.0	1618413110.5580	False		False	0.0	134.0938000679016	30.0
02	ses-001	60	images_fmri/broccoli/broccoli_03s.jpg	seen	1011	85	3	None	202.0	3050.0	3.0	seen-within	2	2	266.73	2.98	False	True	266.7124390602112	269.6947889328003	[['b', 267.6557719707489]]	2.0	seen	False	True	0.9257719707488832	2.9823498725891118	1.0	59.0	1618413115.0271	False		False	0.0	116.21420001983643	26.0
