subject	session	TrialNumber	image_path	condition	image_nr	category_nr	exemplar_nr	test_image_nr	things_category_nr	things_image_nr	things_exemplar_nr	subcondition	repetition	run	onset	duration	response_mapping_flip_h	response_mapping_flip_v	onset_flip	offset_flip	keypresses	response	response_txt	error	response_confidence	response_time	duration_flip	ran	order	session_trial_time	atypical	atypical_log	exclude_session	delay_days	delay_seconds	trials_since_lastrep
1	ses-001	10	images_fmri/camel/camel_02s.jpg	unseen	1274	107	2	None	246.0	3640.0	2.0	unseen-within	1	1	43.23	2.98	False	True	43.219587087631226	46.19909596443176	[['x', 46.05941200256348]]	-1.0	unseen	False	False	2.82941200256348	2.979508876800537	1.0	9.0	1618407070.4807	False		False			
1	ses-001	11	images_fmri/comb/comb_02s.jpg	unseen	1934	162	2	None	390.0	5612.0	2.0	unseen-within	1	1	47.7	2.98	False	True	47.68479919433594	50.66540098190308	[['y', 49.363072872161865], ['y', 49.389569997787476]]	-2.0	unseen	False	True	1.6630728721618624	2.9806017875671387	1.0	10.0	1618407074.9459	False		False			
1	ses-001	12	images_fmri/comb/comb_02s.jpg	seen	1934	162	2	None	390.0	5612.0	2.0	seen-within	2	1	52.17	2.98	True	True	52.149123191833496	55.13618016242981	[['b', 53.359155893325806]]	2.0	seen	False	True	1.189155893325804	2.987056970596313	1.0	11.0	1618407079.4102	False		False	0.0	4.464300155639648	1.0
1	ses-001	13	images_fmri/bus/bus_02n.jpg	unseen	1178	99	2	None	227.0	3381.0	2.0	unseen-within	1	1	56.64	2.98	True	False	56.61518907546997	59.61541604995728	[['a', 58.12683701515198]]	-2.0	unseen	False	True	1.486837015151977	3.0002269744873047	1.0	12.0	1618407083.8763	False		False			
1	ses-001	14	images_fmri/carrot/carrot_02s.jpg	unseen	1442	121	2	None	278.0	4076.0	2.0	unseen-within	1	1	61.11	2.98	True	False	61.10221219062805	64.06526398658752	[['a', 63.35377287864685]]	-2.0	unseen	False	True	2.243772878646851	2.9630517959594727	1.0	13.0	1618407088.3633	False		False			
1	ses-001	15	images_fmri/coffee_pot/coffee_pot_02s.jpg	seen	1886	158	2	None	381.0	5485.0	2.0	seen-within	2	1	65.58	2.98	True	False	65.56771302223206	68.5516631603241	[['x', 66.61477088928223]]	2.0	seen	False	True	1.0347708892822285	2.983950138092041	1.0	14.0	1618407092.8288	False		False	0.0	58.1136999130249	13.0
1	ses-001	16	images_fmri/tamale/tamale_02s.jpg	unseen	7550	630	2	None	1619.0	22856.0	2.0	unseen-within	1	1	70.05	2.98	False	True	70.03558707237244	73.01523804664612	[['y', 71.9510760307312]]	-2.0	unseen	False	True	1.901076030731204	2.9796509742736816	1.0	15.0	1618407097.2967	False		False			
1	ses-001	17	images_fmri/face_mask/face_mask_02s.jpg	unseen	2846	238	2	None	571.0	8257.0	2.0	unseen-within	1	1	74.52	2.98	True	False	74.49800705909729	77.48412013053894	[['a', 76.0390350818634]]	-2.0	unseen	False	True	1.5190350818634073	2.9861130714416504	1.0	16.0	1618407101.7591	False		False			
1	ses-001	18	images_fmri/television/television_02n.jpg	unseen	7610	635	2	None	1642.0	23177.0	2.0	unseen-within	1	1	78.99	2.98	False	True	78.98353314399719	81.95085215568542	[['y', 80.41282391548157]]	-2.0	unseen	False	True	1.4228239154815725	2.9673190116882324	1.0	17.0	1618407106.2446	False		False			
1	ses-001	19	images_fmri/sombrero/sombrero_02s.jpg	seen	6974	582	2	None	1496.0	21167.0	2.0	seen-within	2	1	83.46	2.98	True	False	83.44796013832092	86.43134212493896	[['x', 84.5865969657898]]	2.0	seen	False	True	1.1265969657898012	2.983381986618042	1.0	18.0	1618407110.709	False		False	0.0	67.04590010643005	15.0
1	ses-001	20	images_fmri/ladder/ladder_02s.jpg	seen	4190	350	2	None	887.0	12695.0	2.0	seen-within	2	1	87.92999999999998	2.98	False	False	87.9183521270752	90.8976640701294	[['x', 89.02293992042542]]	2.0	seen	False	True	1.0929399204254366	2.979311943054199	1.0	19.0	1618407115.1794	False		False	0.0	75.99650001525879	17.0
1	ses-001	21	images_fmri/snowplow/snowplow_02s.jpg	unseen	6926	578	2	None	1485.0	21027.0	2.0	unseen-between	1	1	92.4	2.98	False	True	92.38092017173769	95.36477708816528	[['y', 93.54647207260132]]	-2.0	unseen	False	True	1.146472072601313	2.9838569164276123	1.0	20.0	1618407119.642	False		False			
1	ses-001	22	images_fmri/tamale/tamale_02s.jpg	seen	7550	630	2	None	1619.0	22856.0	2.0	seen-within	2	1	96.87	2.98	False	False	96.85148811340332	99.835529088974	[['x', 97.9564778804779]]	2.0	seen	False	True	1.0864778804779007	2.9840409755706787	1.0	21.0	1618407124.1126	False		False	0.0	26.815900087356567	6.0
1	ses-001	23	images_fmri/manhole/manhole_02n.jpg	unseen	4610	385	2	None	968.0	13794.0	2.0	unseen-between	1	1	101.34	2.98	False	False	101.33414912223816	104.30020904541016	[['y', 103.00335788726807]]	-2.0	unseen	False	True	1.663357887268063	2.966059923171997	1.0	22.0	1618407128.5952	False		False			
1	ses-001	24	images_fmri/octopus/octopus_02s.jpg	unseen	5126	428	2	None	1071.0	15225.0	2.0	unseen-within	1	1	105.81	2.98	True	True	105.79945516586304	108.78064107894896	[['a', 108.15489292144775]]	-2.0	unseen	False	True	2.344892921447752	2.981185913085937	1.0	23.0	1618407133.0605	False		False			
1	ses-001	25	images_fmri/beachball/beachball_02s.jpg	unseen	458	39	2	None	100.0	1496.0	2.0	unseen-within	1	1	110.28	2.98	True	False	110.27044296264648	113.24797010421752	[['a', 111.93540096282959]]	-2.0	unseen	False	True	1.6554009628295887	2.977527141571045	1.0	24.0	1618407137.5315	False		False			
1	ses-001	26	images_fmri/bucket/bucket_02n.jpg	unseen	1070	90	2	None	210.0	3154.0	2.0	unseen-between	1	1	114.75	2.98	False	False	114.73469710350037	117.71391606330872	[['y', 115.97320008277893]]	-2.0	unseen	False	True	1.2232000827789309	2.9792189598083496	1.0	25.0	1618407141.9958	False		False			
1	ses-001	27	images_fmri/carrot/carrot_02s.jpg	seen	1442	121	2	None	278.0	4076.0	2.0	seen-within	2	1	119.22	2.98	False	True	119.20088815689088	122.18315315246582	[['b', 120.52934885025024]]	2.0	seen	False	True	1.3093488502502453	2.982264995574951	1.0	26.0	1618407146.462	False		False	0.0	58.09869980812073	13.0
1	ses-001	28	images_fmri/tag/tag_02s.jpg	unseen	7526	628	2	None	1617.0	22827.0	2.0	unseen-within	1	1	123.69	2.98	False	True	123.6852571964264	126.6495599746704	[['y', 126.03205585479736]]	-2.0	unseen	False	True	2.3420558547973656	2.9643027782440186	1.0	27.0	1618407150.9463	False		False			
1	ses-001	29	images_fmri/hamburger/hamburger_02s.jpg	unseen	3578	299	2	None	741.0	10620.0	2.0	unseen-between	1	1	128.16	2.98	False	False	128.14675307273865	131.1301231384277	[['y', 129.60440587997437]]	-2.0	unseen	False	True	1.4444058799743686	2.983370065689087	1.0	28.0	1618407155.4078	False		False			
1	ses-001	30	images_fmri/television/television_02n.jpg	seen	7610	635	2	None	1642.0	23177.0	2.0	seen-within	2	1	132.63	2.98	True	False	132.61334013938904	135.59663915634155	[['x', 133.85609006881714]]	2.0	seen	False	True	1.2260900688171432	2.983299016952514	1.0	29.0	1618407159.8744	False		False	0.0	53.62979984283447	12.0
1	ses-001	31	images_fmri/cauliflower/cauliflower_02s.jpg	unseen	1502	126	2	None	289.0	4220.0	2.0	unseen-within	1	1	137.1	2.98	False	False	137.0836100578308	140.06316208839417	[['y', 138.99541306495667]]	-2.0	unseen	False	True	1.8954130649566707	2.9795520305633545	1.0	30.0	1618407164.3447	False		False			
1	ses-001	32	images_fmri/lion/lion_02s.jpg	unseen	4430	370	2	None	934.0	13333.0	2.0	unseen-within	1	1	141.57	2.98	True	True	141.55024814605713	144.5324251651764	[['a', 143.5958969593048]]	-2.0	unseen	False	True	2.0258969593048164	2.9821770191192627	1.0	31.0	1618407168.8113	False		False			
1	ses-001	33	images_fmri/beer/beer_02s.jpg	unseen	542	46	2	None	114.0	1736.0	2.0	unseen-within	1	1	146.04	2.98	True	True	146.03169107437134	149.01304411888125	[['a', 148.36107087135315]]	-2.0	unseen	False	True	2.3210708713531574	2.981353044509888	1.0	32.0	1618407173.2928	False		False			
1	ses-001	34	images_fmri/tag/tag_02s.jpg	seen	7526	628	2	None	1617.0	22827.0	2.0	seen-within	2	1	150.51	2.98	True	False	150.49830508232117	153.48055505752563	[['x', 152.10330486297607]]	2.0	seen	False	True	1.593304862976083	2.982249975204468	1.0	33.0	1618407177.7594	False		False	0.0	26.81309986114502	6.0
1	ses-001	35	images_fmri/sweatsuit/sweatsuit_02s.jpg	unseen	7406	618	2	None	1594.0	22520.0	2.0	unseen-within	1	1	154.98	2.98	False	True	154.9665651321411	157.94624996185303	[['y', 157.49417686462402]]	-2.0	unseen	False	True	2.5141768646240337	2.979684829711914	1.0	34.0	1618407182.2276	False		False			
1	ses-001	36	images_fmri/face_mask/face_mask_02s.jpg	seen	2846	238	2	None	571.0	8257.0	2.0	seen-within	2	1	159.45	2.98	False	True	159.4319040775299	162.4153790473938	[['b', 160.8030228614807]]	2.0	seen	False	True	1.3530228614807245	2.983474969863892	1.0	35.0	1618407186.693	False		False	0.0	84.93390011787415	19.0
1	ses-001	37	images_fmri/sweatsuit/sweatsuit_02s.jpg	seen	7406	618	2	None	1594.0	22520.0	2.0	seen-within	2	1	163.92	2.98	False	True	163.8998579978943	166.88192701339722	[['b', 165.13401007652283]]	2.0	seen	False	True	1.2140100765228397	2.9820690155029297	1.0	36.0	1618407191.1609	False		False	0.0	8.933300018310547	2.0
1	ses-001	38	images_fmri/beachball/beachball_02s.jpg	seen	458	39	2	None	100.0	1496.0	2.0	seen-within	2	1	168.39	2.98	True	True	168.3847131729126	171.3483281135559	[['b', 170.0210030078888]]	2.0	seen	False	True	1.6310030078888076	2.9636149406433105	1.0	37.0	1618407195.6458	False		False	0.0	58.1143000125885	13.0
1	ses-001	39	images_fmri/crutch/crutch_02s.jpg	unseen	2246	188	2	None	453.0	6544.0	2.0	unseen-between	1	1	172.86	2.98	True	True	172.84938097000122	175.82900500297546	[['a', 174.12087392807007]]	-2.0	unseen	False	True	1.2608739280700547	2.979624032974243	1.0	38.0	1618407200.1105	False		False			
1	ses-001	40	images_fmri/sim_card/sim_card_02s.jpg	seen	6782	566	2	None	1447.0	20517.0	2.0	seen-within	2	1	177.32999999999996	2.98	True	False	177.3158941268921	180.2956120967865	[['x', 178.70077085494995]]	2.0	seen	False	True	1.3707708549499955	2.979717969894409	1.0	39.0	1618407204.577	False		False	0.0	143.04559993743896	32.0
1	ses-001	41	images_fmri/streetlight/streetlight_02s.jpg	unseen	7298	609	2	None	1572.0	22198.0	2.0	unseen-within	1	1	181.8	2.98	True	False	181.7835190296173	184.7646191120148	[['a', 183.18765997886658]]	-2.0	unseen	False	True	1.3876599788665658	2.981100082397461	1.0	40.0	1618407209.0446	False		False			
1	ses-001	42	images_fmri/closet/closet_02s.jpg	unseen	1826	153	2	None	361.0	5215.0	2.0	unseen-within	1	1	186.27	2.98	False	True	186.24768805503845	189.2315039634705	[['y', 187.68785095214844]]	-2.0	unseen	False	True	1.4178509521484273	2.983815908432007	1.0	41.0	1618407213.5088	False		False			
1	ses-001	43	images_fmri/thumbtack/thumbtack_02s.jpg	unseen	7682	641	2	None	1655.0	23364.0	2.0	unseen-between	1	1	190.74	2.98	False	False	190.72892212867737	193.69493198394773	[['y', 193.28084802627563]]	-2.0	unseen	False	True	2.5408480262756257	2.9660098552703857	1.0	42.0	1618407217.99	False		False			
1	ses-001	44	images_fmri/granola/granola_02s.jpg	unseen	3374	282	2	None	702.0	10052.0	2.0	unseen-within	1	1	195.21	2.98	False	True	195.1948390007019	198.1786060333252	[['y', 196.92060494422913]]	-2.0	unseen	False	True	1.710604944229118	2.983767032623291	1.0	43.0	1618407222.4559	False		False			
1	ses-001	45	images_fmri/magnifying_glass/magnifying_glass_02s.jpg	unseen	4538	379	2	None	959.0	13663.0	2.0	unseen-between	1	1	199.68	2.98	False	True	199.6665301322937	202.64462018013	[['y', 201.08553099632263]]	-2.0	unseen	False	True	1.405530996322625	2.978090047836304	1.0	44.0	1618407226.9276	False		False			
1	ses-001	46	images_fmri/girl/girl_02s.jpg	seen	3254	272	2	None	677.0	9696.0	2.0	seen-within	2	1	204.15	2.98	True	True	204.132021188736	207.1111371517181	[['b', 205.43978905677795]]	2.0	seen	False	True	1.2897890567779484	2.9791159629821777	1.0	45.0	1618407231.3931	False		False	0.0	201.14370012283325	45.0
1	ses-001	47	images_fmri/stapler/stapler_02s.jpg	unseen	7178	599	2	None	1540.0	21755.0	2.0	unseen-between	1	1	208.62	2.98	False	True	208.6135170459748	211.58280301094047	[['y', 210.70875787734985]]	-2.0	unseen	False	True	2.088757877349849	2.9692859649658203	1.0	46.0	1618407235.8746	False		False			
1	ses-001	48	images_fmri/cauliflower/cauliflower_02s.jpg	seen	1502	126	2	None	289.0	4220.0	2.0	seen-within	2	1	213.09	2.98	False	False	213.0800399780273	216.0612630844116	[['x', 214.21229696273804]]	2.0	seen	False	True	1.1222969627380337	2.9812231063842773	1.0	47.0	1618407240.3411	False		False	0.0	75.99639987945557	17.0
1	ses-001	49	images_fmri/streetlight/streetlight_02s.jpg	seen	7298	609	2	None	1572.0	22198.0	2.0	seen-within	2	1	217.56	2.98	False	False	217.548593044281	220.5310890674591	[['x', 218.5094039440155]]	2.0	seen	False	True	0.9494039440155008	2.9824960231781006	1.0	48.0	1618407244.8097	False		False	0.0	35.76510000228882	8.0
1	ses-001	50	images_fmri/lion/lion_02s.jpg	seen	4430	370	2	None	934.0	13333.0	2.0	seen-within	2	1	222.03	2.98	True	False	222.01563215255737	224.9969701766968	[['x', 222.98643493652344]]	2.0	seen	False	True	0.9564349365234364	2.9813380241394043	1.0	49.0	1618407249.2767	False		False	0.0	80.46539998054504	18.0
1	ses-001	51	images_fmri/giraffe/giraffe_02s.jpg	unseen	3242	271	2	None	676.0	9672.0	2.0	unseen-within	1	1	226.5	2.98	True	True	226.47993898391724	229.4633870124817	[['a', 228.13968086242676]]	-2.0	unseen	False	True	1.6396808624267578	2.983448028564453	1.0	50.0	1618407253.741	False		False			
1	ses-001	52	images_fmri/horseshoe/horseshoe_02s.jpg	seen	3830	320	2	None	800.0	11439.0	2.0	seen-within	2	1	230.97	2.98	True	False	230.9627180099488	233.9299190044403	[['x', 232.25126099586487]]	2.0	seen	False	True	1.2812609958648693	2.967200994491577	1.0	51.0	1618407258.2238	False		False	0.0	205.62599992752075	46.0
1	ses-001	53	images_fmri/lobster/lobster_02n.jpg	unseen	4478	374	2	None	940.0	13419.0	2.0	unseen-within	1	1	235.44	2.98	True	True	235.42932105064392	238.41083216667167	[['a', 236.86746096611023]]	-2.0	unseen	False	True	1.4274609661102318	2.981511116027832	1.0	52.0	1618407262.6904	False		False			
1	ses-001	54	images_fmri/ferret/ferret_02s.jpg	unseen	2882	241	2	None	579.0	8373.0	2.0	unseen-within	1	1	239.91	2.98	True	True	239.89744210243225	242.8770890235901	[['a', 241.48348188400269]]	-2.0	unseen	False	True	1.573481884002689	2.979646921157837	1.0	53.0	1618407267.1585	False		False			
1	ses-001	55	images_fmri/cotton_candy/cotton_candy_02s.jpg	unseen	2066	173	2	None	422.0	6065.0	2.0	unseen-between	1	1	244.38	2.98	False	False	244.36413407325745	247.3435640335083	[['y', 245.44036102294922]]	-2.0	unseen	False	True	1.0603610229492233	2.9794299602508545	1.0	54.0	1618407271.6252	False		False			
1	ses-001	56	images_fmri/bean/bean_02s.jpg	unseen	482	41	2	None	103.0	1545.0	2.0	unseen-within	1	1	248.85	2.98	False	True	248.83065915107727	251.812824010849	[['y', 250.23933601379395]]	-2.0	unseen	False	True	1.389336013793951	2.9821648597717285	1.0	55.0	1618407276.0917	False		False			
1	ses-001	57	images_fmri/camel/camel_02s.jpg	seen	1274	107	2	None	246.0	3640.0	2.0	seen-within	2	1	253.32	2.98	False	True	253.3121330738068	256.29321217536926	[['b', 254.4882230758667]]	2.0	seen	False	True	1.168223075866706	2.9810791015625	1.0	56.0	1618407280.5732	False		False	0.0	210.09249997138977	47.0
1	ses-001	58	images_fmri/cupcake/cupcake_02s.jpg	unseen	2306	193	2	None	462.0	6689.0	2.0	unseen-between	1	1	257.79	2.98	True	True	257.7786560058594	260.7598261833191	[['a', 259.0020658969879]]	-2.0	unseen	False	True	1.2120658969878946	2.981170177459717	1.0	57.0	1618407285.0397	False		False			
1	ses-001	59	images_fmri/closet/closet_02s.jpg	seen	1826	153	2	None	361.0	5215.0	2.0	seen-within	2	1	262.26	2.98	True	True	262.2486250400543	265.2306170463562	[['b', 263.2920639514923]]	2.0	seen	False	True	1.0320639514923189	2.98199200630188	1.0	58.0	1618407289.5097	False		False	0.0	76.00090003013611	17.0
1	ses-001	60	images_fmri/beer/beer_02s.jpg	seen	542	46	2	None	114.0	1736.0	2.0	seen-within	2	1	266.73	2.98	True	False	266.7095980644226	269.69685912132263	[['x', 267.7565770149231]]	2.0	seen	False	True	1.0265770149230775	2.9872610569000244	1.0	59.0	1618407293.9707	False		False	0.0	120.67790007591248	27.0
1	ses-001	1	images_fmri/padlock/padlock_02n.jpg	unseen	5234	437	2	None	1096.0	15602.0	2.0	unseen-between	1	2	3.0	2.98	True	True	2.9857499599456787	5.963819980621338	[['a', 4.8177268505096436]]	-2.0	unseen	False	True	1.817726850509644	2.978070020675659	1.0	0.0	1618407410.8728	False		False			
1	ses-001	2	images_fmri/dustpan/dustpan_02n.jpg	unseen	2654	222	2	None	536.0	7777.0	2.0	unseen-within	1	2	7.47	2.98	False	False	7.465930938720703	10.43314003944397	[['y', 9.227412939071655]]	-2.0	unseen	False	True	1.7574129390716555	2.9672091007232666	1.0	1.0	1618407415.353	False		False			
1	ses-001	3	images_fmri/cactus/cactus_02s.jpg	unseen	1214	102	2	None	236.0	3507.0	2.0	unseen-within	1	2	11.94	2.98	False	True	11.932471990585327	14.913727045059204	[['y', 13.222090005874634]]	-2.0	unseen	False	True	1.2820900058746345	2.981255054473877	1.0	2.0	1618407419.8195	False		False			
1	ses-001	4	images_fmri/sunroof/sunroof_02s.jpg	unseen	7370	615	2	None	1587.0	22409.0	2.0	unseen-within	1	2	16.41	2.98	False	True	16.400852918624878	19.386652946472168	[['y', 17.361006021499634]]	-2.0	unseen	False	True	0.9510060214996336	2.98580002784729	1.0	3.0	1618407424.2879	False		False			
1	ses-001	5	images_fmri/airbag/airbag_02s.jpg	unseen	14	2	2	None	8.0	99.0	2.0	unseen-within	1	2	20.88	2.98	False	False	20.863252878189087	23.84664392471313	[['y', 22.37524390220642]]	-2.0	unseen	False	True	1.495243902206422	2.983391046524048	1.0	4.0	1618407428.7503	False		False			
1	ses-001	6	images_fmri/bassinet/bassinet_02s.jpg	unseen	434	37	2	None	86.0	1268.0	2.0	unseen-between	1	2	25.35	2.98	False	True	25.33437395095825	28.313236951828003	[['y', 26.588465929031372]]	-2.0	unseen	False	True	1.2384659290313706	2.978863000869751	1.0	5.0	1618407433.2214	False		False			
1	ses-001	7	images_fmri/odometer/odometer_02s.jpg	unseen	5138	429	2	None	1072.0	15237.0	2.0	unseen-between	1	2	29.82	2.98	True	False	29.81548500061035	32.779664039611816	[['a', 31.72542691230774]]	-2.0	unseen	False	True	1.905426912307739	2.964179039001465	1.0	6.0	1618407437.7025	False		False			
1	ses-001	8	images_fmri/cheese/cheese_02s.jpg	unseen	1598	134	2	None	313.0	4550.0	2.0	unseen-within	1	2	34.29	2.98	False	True	34.28209900856018	37.26377987861633	[['y', 35.86303186416626]]	-2.0	unseen	False	True	1.5730318641662606	2.9816808700561523	1.0	7.0	1618407442.1691	False		False			
1	ses-001	9	images_fmri/hammock/hammock_02s.jpg	unseen	3602	301	2	None	743.0	10644.0	2.0	unseen-between	1	2	38.76	2.98	True	True	38.75062108039856	41.72954201698303	[['a', 40.30347800254822]]	-2.0	unseen	False	True	1.5434780025482198	2.9789209365844727	1.0	8.0	1618407446.6377	False		False			
1	ses-001	10	images_fmri/iguana/iguana_02s.jpg	unseen	3926	328	2	None	826.0	11803.0	2.0	unseen-between	1	2	43.23	2.98	False	False	43.21274495124817	46.19627594947815	[['y', 45.53607892990112]]	-2.0	unseen	False	True	2.306078929901126	2.9835309982299805	1.0	9.0	1618407451.0998	False		False			
1	ses-001	11	images_fmri/stopwatch/stopwatch_02s.jpg	unseen	7250	605	2	None	1563.0	22071.0	2.0	unseen-between	1	2	47.7	2.98	True	False	47.68322205543518	50.66270089149475	[['a', 49.232828855514526]]	-2.0	unseen	False	True	1.5328288555145235	2.9794788360595703	1.0	10.0	1618407455.5703	False		False			
1	ses-001	12	images_fmri/ant/ant_02s.jpg	unseen	122	11	2	None	25.0	345.0	2.0	unseen-between	1	2	52.17	2.98	True	False	52.164751052856445	55.13062596321106	[['a', 54.14206385612488]]	-2.0	unseen	False	True	1.972063856124876	2.9658749103546143	1.0	11.0	1618407460.0518	False		False			
1	ses-001	13	images_fmri/wolf/wolf_02s.jpg	unseen	8534	712	2	None	1832.0	25795.0	2.0	unseen-within	1	2	56.64	2.98	True	False	56.62992787361145	59.61233997344971	[['a', 58.11797595024109]]	-2.0	unseen	False	True	1.4779759502410883	2.982412099838257	1.0	12.0	1618407464.517	False		False			
1	ses-001	14	images_fmri/deer/deer_02s.jpg	unseen	2354	197	2	None	477.0	6898.0	2.0	unseen-between	1	2	61.11	2.98	False	True	61.099637031555176	64.07935500144958	[['y', 62.30102491378784]]	-2.0	unseen	False	True	1.1910249137878424	2.979717969894409	1.0	13.0	1618407468.9867	False		False			
1	ses-001	15	images_fmri/peach/peach_02n.jpg	unseen	5402	451	2	None	1130.0	16089.0	2.0	unseen-within	1	2	65.58	2.98	False	True	65.5660789012909	68.54565906524658	[['y', 66.81592202186584]]	-2.0	unseen	False	True	1.2359220218658464	2.9795801639556885	1.0	14.0	1618407473.4531	False		False			
1	ses-001	16	images_fmri/telescope/telescope_02s.jpg	unseen	7598	634	2	None	1641.0	23164.0	2.0	unseen-within	1	2	70.05	2.98	False	False	70.03299403190613	73.01228594779968	[['y', 71.40369701385498]]	-2.0	unseen	False	True	1.3536970138549833	2.9792919158935547	1.0	15.0	1618407477.92	False		False			
1	ses-001	17	images_fmri/pretzel/pretzel_02s.jpg	unseen	5942	496	2	None	1240.0	17637.0	2.0	unseen-within	1	2	74.52	2.98	False	True	74.51415300369263	77.48280000686646	[['y', 76.20616602897644]]	-2.0	unseen	False	True	1.6861660289764444	2.968647003173828	1.0	16.0	1618407482.4012	False		False			
1	ses-001	18	images_fmri/octopus/octopus_02s.jpg	seen	5126	428	2	None	1071.0	15225.0	2.0	seen-within	2	2	78.99	2.98	False	False	78.98077487945557	81.96357798576355	[['y', 80.60311985015869]]	-2.0	unseen	True	True	1.6131198501586963	2.9828031063079834	1.0	17.0	1618407486.8678	False		False	0.0	353.8073000907898	54.0
1	ses-001	19	images_fmri/bagel/bagel_02n.jpg	unseen	302	26	2	None	56.0	813.0	2.0	unseen-between	1	2	83.46	2.98	True	True	83.44947385787964	86.4285478591919	[['a', 84.99572491645813]]	-2.0	unseen	False	True	1.535724916458136	2.979074001312256	1.0	18.0	1618407491.3365	False		False			
1	ses-001	20	images_fmri/rat/rat_02s.jpg	unseen	6146	513	2	None	1286.0	18302.0	2.0	unseen-within	1	2	87.92999999999998	2.98	True	False	87.91573596000671	90.89485597610474	[['a', 89.17760300636292]]	-2.0	unseen	False	True	1.2476030063629366	2.9791200160980225	1.0	19.0	1618407495.8028	False		False			
1	ses-001	21	images_fmri/dustpan/dustpan_02n.jpg	seen	2654	222	2	None	536.0	7777.0	2.0	seen-within	2	2	92.4	2.98	False	False	92.3821189403534	95.36157393455504	[['x', 93.61939096450806]]	2.0	seen	False	True	1.219390964508051	2.97945499420166	1.0	20.0	1618407500.2692	False		False	0.0	84.91620016098022	19.0
1	ses-001	22	images_fmri/bean/bean_02s.jpg	seen	482	41	2	None	103.0	1545.0	2.0	seen-within	2	2	96.87	2.98	True	True	96.86361002922058	99.83198499679564	[['b', 98.04738187789917]]	2.0	seen	False	True	1.1773818778991654	2.968374967575073	1.0	21.0	1618407504.7506	False		False	0.0	228.6589000225067	26.0
1	ses-001	23	images_fmri/beet/beet_02s.jpg	unseen	554	47	2	None	115.0	1752.0	2.0	unseen-within	1	2	101.34	2.98	False	False	101.32799196243286	104.311420917511	[['y', 102.7694079875946]]	-2.0	unseen	False	True	1.429407987594601	2.983428955078125	1.0	22.0	1618407509.215	False		False			
1	ses-001	24	images_fmri/telescope/telescope_02s.jpg	seen	7598	634	2	None	1641.0	23164.0	2.0	seen-within	2	2	105.81	2.98	False	False	105.79938006401062	108.77879285812378	[['x', 106.84867596626282]]	2.0	seen	False	True	1.038675966262815	2.979412794113159	1.0	23.0	1618407513.6864	False		False	0.0	35.76639986038208	8.0
1	ses-001	25	images_fmri/pistachio/pistachio_02s.jpg	unseen	5654	472	2	None	1189.0	16906.0	2.0	unseen-within	1	2	110.28	2.98	False	False	110.2648630142212	113.244215965271	[['y', 111.53328394889832]]	-2.0	unseen	False	True	1.2532839488983143	2.9793529510498047	1.0	24.0	1618407518.1519	False		False			
1	ses-001	26	images_fmri/sickle/sickle_02s.jpg	unseen	6758	564	2	None	1442.0	20445.0	2.0	unseen-between	1	2	114.75	2.98	False	True	114.74648690223694	117.7136459350586	[['y', 116.36854600906372]]	-2.0	unseen	False	True	1.6185460090637207	2.967159032821656	1.0	25.0	1618407522.6335	False		False			
1	ses-001	27	images_fmri/pistachio/pistachio_02s.jpg	seen	5654	472	2	None	1189.0	16906.0	2.0	seen-within	2	2	119.22	2.98	True	True	119.2130138874054	122.19631004333496	[['b', 120.24737405776978]]	2.0	seen	False	True	1.0273740577697763	2.983296155929565	1.0	26.0	1618407527.1	False		False	0.0	8.948099851608276	2.0
1	ses-001	28	images_fmri/hairpin/hairpin_02s.jpg	unseen	3566	298	2	None	738.0	10581.0	2.0	unseen-between	1	2	123.69	2.98	True	True	123.67739987373352	126.66057801246644	[['a', 125.76124501228333]]	-2.0	unseen	False	True	2.0712450122833275	2.98317813873291	1.0	27.0	1618407531.5644	False		False			
1	ses-001	29	images_fmri/flower/flower_02s.jpg	unseen	3026	253	2	None	620.0	8939.0	2.0	unseen-between	1	2	128.16	2.98	True	True	128.14792799949646	131.1322979927063	[['a', 129.2814519405365]]	-2.0	unseen	False	True	1.1214519405365024	2.984369993209839	1.0	28.0	1618407536.035	False		False			
1	ses-001	30	images_fmri/trashcan/trashcan_02s.jpg	unseen	7946	663	2	None	1705.0	24047.0	2.0	unseen-between	1	2	132.63	2.98	True	False	132.61429500579834	135.594055891037	[['a', 133.77127194404602]]	-2.0	unseen	False	True	1.141271944046025	2.9797608852386475	1.0	29.0	1618407540.5013	False		False			
1	ses-001	31	images_fmri/lobster/lobster_02n.jpg	seen	4478	374	2	None	940.0	13419.0	2.0	seen-within	2	2	137.1	2.98	True	True	137.0958240032196	140.06432485580444	[['b', 138.14297604560852]]	2.0	seen	False	True	1.0429760456085262	2.968500852584839	1.0	30.0	1618407544.9829	False		False	0.0	282.2925000190735	38.0
1	ses-001	32	images_fmri/pocket/pocket_02s.jpg	unseen	5750	480	2	None	1206.0	17132.0	2.0	unseen-between	1	2	141.57	2.98	True	False	141.56259298324585	144.5458538532257	[['a', 142.78323101997375]]	-2.0	unseen	False	True	1.2132310199737617	2.9832608699798584	1.0	31.0	1618407549.4496	False		False			
1	ses-001	33	images_fmri/rice/rice_02s.jpg	unseen	6278	524	2	None	1310.0	18647.0	2.0	unseen-within	1	2	146.04	2.98	True	False	146.03039002418518	149.01111888885498	[['a', 148.63395500183105]]	-2.0	unseen	False	True	2.593955001831062	2.9807288646698	1.0	32.0	1618407553.9174	False		False			
1	ses-001	34	images_fmri/rice/rice_02s.jpg	seen	6278	524	2	None	1310.0	18647.0	2.0	seen-within	2	2	150.51	2.98	True	True	150.49847888946533	153.48154187202454	[['b', 151.38816595077515]]	2.0	seen	False	True	0.8781659507751556	2.983062982559204	1.0	33.0	1618407558.3855	False		False	0.0	4.468100070953369	1.0
1	ses-001	35	images_fmri/peach/peach_02n.jpg	seen	5402	451	2	None	1130.0	16089.0	2.0	seen-within	2	2	154.98	2.98	False	True	154.9646339416504	157.94301104545593	[['b', 156.17827796936035]]	2.0	seen	False	True	1.1982779693603618	2.978377103805542	1.0	34.0	1618407562.8517	False		False	0.0	89.39860010147095	20.0
1	ses-001	36	images_fmri/fern/fern_02n.jpg	unseen	2870	240	2	None	578.0	8361.0	2.0	unseen-between	1	2	159.45	2.98	False	False	159.4431538581848	162.4096040725708	[['y', 161.05106401443481]]	-2.0	unseen	False	True	1.6010640144348258	2.9664502143859863	1.0	35.0	1618407567.3302	False		False			
1	ses-001	37	images_fmri/guillotine/guillotine_02s.jpg	unseen	3518	294	2	None	722.0	10355.0	2.0	unseen-between	1	2	163.92	2.98	True	False	163.91181087493896	166.8930149078369	[['a', 165.888906955719]]	-2.0	unseen	False	True	1.9689069557190064	2.981204032897949	1.0	36.0	1618407571.7988	False		False			
1	ses-001	38	images_fmri/airbag/airbag_02s.jpg	seen	14	2	2	None	8.0	99.0	2.0	seen-within	2	2	168.39	2.98	False	True	168.380047082901	171.36168885231018	[['b', 169.3677580356598]]	2.0	seen	False	True	0.9777580356598036	2.98164176940918	1.0	37.0	1618407576.2671	False		False	0.0	147.5168001651764	33.0
1	ses-001	39	images_fmri/subway/subway_02s.jpg	unseen	7322	611	2	None	1579.0	22295.0	2.0	unseen-between	1	2	172.86	2.98	True	True	172.84658098220825	175.83045887947085	[['a', 174.15299892425537]]	-2.0	unseen	False	True	1.2929989242553577	2.983877897262573	1.0	38.0	1618407580.7336	False		False			
1	ses-001	40	images_fmri/sunroof/sunroof_02s.jpg	seen	7370	615	2	None	1587.0	22409.0	2.0	seen-within	2	2	177.32999999999996	2.98	False	False	177.313227891922	180.2923719882965	[['x', 178.8467390537262]]	2.0	seen	False	True	1.5167390537262406	2.979144096374512	1.0	39.0	1618407585.2003	False		False	0.0	160.91240000724792	36.0
1	ses-001	41	images_fmri/raccoon/raccoon_02s.jpg	unseen	6062	506	2	None	1267.0	18052.0	2.0	unseen-within	1	2	181.8	2.98	True	False	181.7925100326538	184.76184606552124	[['a', 183.01414489746094]]	-2.0	unseen	False	True	1.214144897460926	2.969336032867432	1.0	40.0	1618407589.6795	False		False			
1	ses-001	42	images_fmri/dashboard/dashboard_02s.jpg	unseen	2342	196	2	None	476.0	6885.0	2.0	unseen-within	1	2	186.27	2.98	True	True	186.26320600509644	189.2426369190216	[['a', 187.77974486351013]]	-2.0	unseen	False	True	1.5097448635101216	2.979430913925171	1.0	41.0	1618407594.1502	False		False			
1	ses-001	43	images_fmri/cheese/cheese_02s.jpg	seen	1598	134	2	None	313.0	4550.0	2.0	seen-within	2	2	190.74	2.98	True	True	190.7298259735108	193.71289086341852	[['b', 191.7537829875946]]	2.0	seen	False	True	1.0137829875945954	2.983064889907837	1.0	42.0	1618407598.6169	False		False	0.0	156.44779992103577	35.0
1	ses-001	44	images_fmri/clipboard/clipboard_02s.jpg	unseen	1802	151	2	None	356.0	5149.0	2.0	unseen-within	1	2	195.21	2.98	True	True	195.19597101211548	198.1754958629608	[['a', 196.7368199825287]]	-2.0	unseen	False	True	1.5268199825286786	2.979524850845337	1.0	43.0	1618407603.083	False		False			
1	ses-001	45	images_fmri/bus/bus_02n.jpg	seen	1178	99	2	None	227.0	3381.0	2.0	seen-within	2	2	199.68	2.98	True	False	199.6612730026245	202.64194297790527	[['a', 201.89766192436218]]	-2.0	unseen	True	True	2.217661924362176	2.9806699752807617	1.0	44.0	1618407607.5483	False		False	0.0	523.6719999313354	92.0
1	ses-001	46	images_fmri/dashboard/dashboard_02s.jpg	seen	2342	196	2	None	476.0	6885.0	2.0	seen-within	2	2	204.15	2.98	False	False	204.14405989646912	207.1112608909607	[['x', 205.48368000984192]]	2.0	seen	False	True	1.3336800098419133	2.967200994491577	1.0	45.0	1618407612.0311	False		False	0.0	17.880900144577026	4.0
1	ses-001	47	images_fmri/bracelet2/bracelet2_02s.jpg	unseen	950	80	2	None	189.0	2861.0	2.0	unseen-between	1	2	208.62	2.98	True	True	208.6123960018158	211.5932400226593	[['a', 210.1605339050293]]	-2.0	unseen	False	True	1.5405339050292923	2.980844020843506	1.0	46.0	1618407616.4994	False		False			
1	ses-001	48	images_fmri/ferret/ferret_02s.jpg	seen	2882	241	2	None	579.0	8373.0	2.0	seen-within	2	2	213.09	2.98	False	False	213.0786440372467	216.0581600666046	[['x', 214.48551297187805]]	2.0	seen	False	True	1.3955129718780483	2.97951602935791	1.0	47.0	1618407620.9657	False		False	0.0	353.8071999549866	54.0
1	ses-001	49	images_fmri/clipboard/clipboard_02s.jpg	seen	1802	151	2	None	356.0	5149.0	2.0	seen-within	2	2	217.56	2.98	True	True	217.5452048778534	220.5246579647064	[['b', 218.73892092704773]]	2.0	seen	False	True	1.1789209270477272	2.979453086853028	1.0	48.0	1618407625.4322	False		False	0.0	22.349200010299683	5.0
1	ses-001	50	images_fmri/jukebox/jukebox_02s.jpg	unseen	4046	338	2	None	858.0	12267.0	2.0	unseen-between	1	2	222.03	2.98	False	True	222.01163792610168	224.99394488334656	[['y', 223.7186200618744]]	-2.0	unseen	False	True	1.6886200618743883	2.982306957244873	1.0	49.0	1618407629.8987	False		False			
1	ses-001	51	images_fmri/motorcycle/motorcycle_02s.jpg	unseen	4922	411	2	None	1026.0	14618.0	2.0	unseen-between	1	2	226.5	2.98	False	False	226.4933700561524	229.4615089893341	[['y', 227.68155598640442]]	-2.0	unseen	False	True	1.181555986404419	2.9681389331817627	1.0	50.0	1618407634.3804	False		False			
1	ses-001	52	images_fmri/cactus/cactus_02s.jpg	seen	1214	102	2	None	236.0	3507.0	2.0	seen-within	2	2	230.97	2.98	True	False	230.96270895004272	233.94109296798703	[['x', 232.24750185012817]]	2.0	seen	False	True	1.277501850128175	2.978384017944336	1.0	51.0	1618407638.8497	False		False	0.0	219.03020000457764	49.0
1	ses-001	53	images_fmri/raccoon/raccoon_02s.jpg	seen	6062	506	2	None	1267.0	18052.0	2.0	seen-within	2	2	235.44	2.98	False	False	235.42423391342163	238.40783596038816	[['x', 236.66544604301453]]	2.0	seen	False	True	1.2254460430145286	2.9836020469665527	1.0	52.0	1618407643.3113	False		False	0.0	53.63179993629456	12.0
1	ses-001	54	images_fmri/crayfish/crayfish_02s.jpg	unseen	2150	180	2	None	435.0	6284.0	2.0	unseen-within	1	2	239.91	2.98	False	True	239.8961808681488	242.87421703338623	[['y', 241.1663420200348]]	-2.0	unseen	False	True	1.2563420200347934	2.9780361652374268	1.0	53.0	1618407647.7832	False		False			
1	ses-001	55	images_fmri/piano/piano_02n.jpg	unseen	5534	462	2	None	1166.0	16587.0	2.0	unseen-within	1	2	244.38	2.98	False	True	244.3773958683014	247.34362196922305	[['y', 245.8341748714447]]	-2.0	unseen	False	True	1.4541748714447067	2.966226100921631	1.0	54.0	1618407652.2644	False		False			
1	ses-001	56	images_fmri/drawer/drawer_02s.jpg	seen	2582	216	2	None	517.0	7502.0	2.0	seen-within	2	2	248.85	2.98	True	True	248.84293007850647	251.82476496696472	[['b', 250.26833200454712]]	2.0	seen	False	True	1.4183320045471248	2.981834888458252	1.0	55.0	1618407656.73	False		False	0.0	608.5982999801636	111.0
1	ses-001	57	images_fmri/wolf/wolf_02s.jpg	seen	8534	712	2	None	1832.0	25795.0	2.0	seen-within	2	2	253.32	2.98	True	False	253.31112694740293	256.29072403907776	[['x', 254.71341586112976]]	2.0	seen	False	True	1.3934158611297676	2.9795970916748047	1.0	56.0	1618407661.1982	False		False	0.0	196.68120002746585	44.0
1	ses-001	58	images_fmri/whip/whip_02s.jpg	unseen	8450	705	2	None	1810.0	25489.0	2.0	unseen-within	1	2	257.79	2.98	False	True	257.7777190208435	260.7587699890137	[['y', 259.4182469844818]]	-2.0	unseen	False	True	1.628246984481791	2.981050968170166	1.0	57.0	1618407665.6648	False		False			
1	ses-001	59	images_fmri/chalk/chalk_02s.jpg	unseen	1562	131	2	None	303.0	4412.0	2.0	unseen-within	1	2	262.26	2.98	False	False	262.24424505233765	265.2235059738159	[['y', 263.97096586227417]]	-2.0	unseen	False	True	1.710965862274179	2.9792609214782715	1.0	58.0	1618407670.1313	False		False			
1	ses-001	60	images_fmri/chalk/chalk_02s.jpg	seen	1562	131	2	None	303.0	4412.0	2.0	seen-within	2	2	266.73	2.98	True	False	266.7272119522095	269.6903100013733	[['x', 267.8674759864807]]	2.0	seen	False	True	1.1374759864806947	2.9630980491638184	1.0	59.0	1618407674.6142	False		False	0.0	4.482900142669678	1.0
1	ses-001	1	images_fmri/hippopotamus/hippopotamus_02s.jpg	unseen	3782	316	2	None	782.0	11185.0	2.0	unseen-within	1	3	3.0	2.98	False	True	2.983315944671631	5.966552972793579	[['y', 4.836384057998657]]	-2.0	unseen	False	True	1.8363840579986568	2.983237028121948	1.0	0.0	1618407783.7225	False		False			
1	ses-001	2	images_fmri/saltshaker/saltshaker_02s.jpg	unseen	6422	536	2	None	1351.0	19206.0	2.0	unseen-between	1	3	7.47	2.98	True	False	7.450293064117432	10.433170080184937	[['a', 9.259464979171753]]	-2.0	unseen	False	True	1.7894649791717532	2.982877016067505	1.0	1.0	1618407788.1895	False		False			
1	ses-001	3	images_fmri/brush/brush_02s.jpg	unseen	1046	88	2	None	206.0	3105.0	2.0	unseen-between	1	3	11.94	2.98	False	False	11.916780948638916	14.899652004241943	[['y', 14.868095874786377]]	-2.0	unseen	False	True	2.928095874786377	2.982871055603028	1.0	2.0	1618407792.656	False		False			
1	ses-001	4	images_fmri/jersey/jersey_02s.jpg	unseen	4022	336	2	None	847.0	12107.0	2.0	unseen-within	1	3	16.41	2.98	False	False	16.382932901382446	19.36784100532532	[['y', 17.86828303337097]]	-2.0	unseen	False	True	1.4582830333709715	2.984908103942871	1.0	3.0	1618407797.1221	False		False			
1	ses-001	5	images_fmri/raft/raft_02s.jpg	unseen	6110	510	2	None	1276.0	18173.0	2.0	unseen-within	1	3	20.88	2.98	False	True	20.8683819770813	23.835031032562256	[['y', 22.88146209716797]]	-2.0	unseen	False	True	2.0014620971679697	2.966649055480957	1.0	4.0	1618407801.6076	False		False			
1	ses-001	6	images_fmri/raft/raft_02s.jpg	seen	6110	510	2	None	1276.0	18173.0	2.0	seen-within	2	3	25.35	2.98	False	False	25.337238073349	28.3204128742218	[['x', 26.445600986480713]]	2.0	seen	False	True	1.0956009864807117	2.9831748008728027	1.0	5.0	1618407806.0764	False		False	0.0	4.468800067901611	1.0
1	ses-001	7	images_fmri/thermos/thermos_02s.jpg	unseen	7646	638	2	None	1648.0	23266.0	2.0	unseen-within	1	3	29.82	2.98	False	False	29.80513095855713	32.78482389450073	[['y', 32.044203996658325]]	-2.0	unseen	False	True	2.224203996658325	2.9796929359436035	1.0	6.0	1618407810.5443	False		False			
1	ses-001	8	images_fmri/crayfish/crayfish_02s.jpg	seen	2150	180	2	None	435.0	6284.0	2.0	seen-within	2	3	34.29	2.98	True	True	34.27167797088623	37.25139594078064	[['b', 35.4693660736084]]	2.0	seen	False	True	1.1793660736083993	2.979717969894409	1.0	7.0	1618407815.0108	False		False	0.0	167.22759985923767	14.0
1	ses-001	9	images_fmri/pretzel/pretzel_02s.jpg	seen	5942	496	2	None	1240.0	17637.0	2.0	seen-within	2	3	38.76	2.98	True	False	38.73832297325134	41.71775794029236	[['x', 39.94117188453674]]	2.0	seen	False	True	1.1811718845367452	2.979434967041016	1.0	8.0	1618407819.4775	False		False	0.0	337.076299905777	52.0
1	ses-001	10	images_fmri/flyswatter/flyswatter_02s.jpg	unseen	3038	254	2	None	624.0	9003.0	2.0	unseen-within	1	3	43.23	2.98	True	True	43.21821594238281	46.18411087989807	[['a', 45.219943046569824]]	-2.0	unseen	False	True	1.989943046569828	2.965894937515259	1.0	9.0	1618407823.9574	False		False			
1	ses-001	11	images_fmri/cat/cat_02s.jpg	unseen	1478	124	2	None	285.0	4163.0	2.0	unseen-between	1	3	47.7	2.98	False	True	47.68961691856384	50.66824793815613	[['y', 49.00114703178406]]	-2.0	unseen	False	True	1.3011470317840548	2.978631019592285	1.0	10.0	1618407828.4288	False		False			
1	ses-001	12	images_fmri/banner/banner_02s.jpg	unseen	386	33	2	None	71.0	1047.0	2.0	unseen-within	1	3	52.17	2.98	True	False	52.15465807914734	55.1342499256134	[['a', 53.82302808761597]]	-2.0	unseen	False	True	1.653028087615965	2.9795918464660645	1.0	11.0	1618407832.8938	False		False			
1	ses-001	13	images_fmri/table/table_02s.jpg	unseen	7478	624	2	None	1609.0	22726.0	2.0	unseen-within	1	3	56.64	2.98	False	True	56.62234687805176	59.60049891471863	[['y', 58.0032639503479]]	-2.0	unseen	False	True	1.3632639503478998	2.97815203666687	1.0	12.0	1618407837.3615	False		False			
1	ses-001	14	images_fmri/anchor/anchor_02s.jpg	unseen	98	9	2	None	22.0	307.0	2.0	unseen-between	1	3	61.11	2.98	True	False	61.08789896965027	64.06698608398438	[['a', 62.47277307510376]]	-2.0	unseen	False	True	1.3627730751037603	2.9790871143341064	1.0	13.0	1618407841.8271	False		False			
1	ses-001	15	images_fmri/yo-yo/yo-yo_02s.jpg	unseen	8606	718	2	None	1848.0	26007.0	2.0	unseen-between	1	3	65.58	2.98	True	True	65.5679440498352	68.5337278842926	[['a', 66.96520590782166]]	-2.0	unseen	False	True	1.385205907821657	2.965783834457397	1.0	14.0	1618407846.3071	False		False			
1	ses-001	16	images_fmri/burner/burner_02s.jpg	unseen	1154	97	2	None	225.0	3357.0	2.0	unseen-within	1	3	70.05	2.98	True	True	70.03805708885193	73.0184600353241	[['a', 71.64706707000732]]	-2.0	unseen	False	True	1.597067070007327	2.980402946472168	1.0	15.0	1618407850.7772	False		False			
1	ses-001	17	images_fmri/chandelier/chandelier_02s.jpg	unseen	1586	133	2	None	306.0	4455.0	2.0	unseen-between	1	3	74.52	2.98	False	True	74.50426006317139	77.4852340221405	[['y', 75.83216404914856]]	-2.0	unseen	False	True	1.3121640491485635	2.980973958969116	1.0	16.0	1618407855.2434	False		False			
1	ses-001	18	images_fmri/undershirt/undershirt_02s.jpg	unseen	8126	678	2	None	1745.0	24594.0	2.0	unseen-between	1	3	78.99	2.98	False	True	78.97162294387817	81.951101064682	[['y', 80.07400488853455]]	-2.0	unseen	False	True	1.084004888534551	2.979478120803833	1.0	17.0	1618407859.7108	False		False			
1	ses-001	19	images_fmri/gel/gel_02s.jpg	unseen	3230	270	2	None	670.0	9598.0	2.0	unseen-between	1	3	83.46	2.98	False	False	83.43735408782959	86.41664695739746	[['y', 85.39982199668884]]	-2.0	unseen	False	True	1.939821996688849	2.979292869567871	1.0	18.0	1618407864.1765	False		False			
1	ses-001	20	images_fmri/hay/hay_02s.jpg	unseen	3674	307	2	None	762.0	10910.0	2.0	unseen-between	1	3	87.92999999999998	2.98	True	False	87.91863107681274	90.88306498527528	[['a', 89.77380990982056]]	-2.0	unseen	False	True	1.8438099098205785	2.9644339084625244	1.0	19.0	1618407868.6578	False		False			
1	ses-001	21	images_fmri/trowel/trowel_02s.jpg	unseen	8006	668	2	None	1720.0	24244.0	2.0	unseen-between	1	3	92.4	2.98	True	True	92.38692092895508	95.36639785766602	[['a', 94.9585828781128]]	-2.0	unseen	False	True	2.558582878112788	2.979476928710937	1.0	20.0	1618407873.1261	False		False			
1	ses-001	22	images_fmri/bandage/bandage_02s.jpg	unseen	374	32	2	None	67.0	994.0	2.0	unseen-between	1	3	96.87	2.98	True	False	96.84968996047974	99.83298993110655	[['a', 98.42148494720459]]	-2.0	unseen	False	True	1.5514849472045853	2.983299970626831	1.0	21.0	1618407877.5889	False		False			
1	ses-001	23	images_fmri/pie/pie_02s.jpg	unseen	5558	464	2	None	1169.0	16628.0	2.0	unseen-between	1	3	101.34	2.98	True	True	101.31972098350523	104.30075287818909	[['a', 102.53169202804565]]	-2.0	unseen	False	True	1.1916920280456509	2.981031894683838	1.0	22.0	1618407882.0589	False		False			
1	ses-001	24	images_fmri/tiara/tiara_02s.jpg	unseen	7694	642	2	None	1656.0	23379.0	2.0	unseen-between	1	3	105.81	2.98	True	False	105.80154395103456	108.7660779953003	[['a', 107.01676607131958]]	-2.0	unseen	False	True	1.2067660713195778	2.964534044265747	1.0	23.0	1618407886.5407	False		False			
1	ses-001	25	images_fmri/key/key_02s.jpg	unseen	4118	344	2	None	870.0	12442.0	2.0	unseen-between	1	3	110.28	2.98	True	True	110.27129197120668	113.2325370311737	[['a', 111.5076060295105]]	-2.0	unseen	False	True	1.227606029510497	2.961245059967041	1.0	24.0	1618407891.0105	False		False			
1	ses-001	26	images_fmri/granola/granola_02s.jpg	seen	3374	282	2	None	702.0	10052.0	2.0	seen-within	2	3	114.75	2.98	False	False	114.73837900161745	117.71740102767944	[['y', 116.04555201530457]]	-2.0	unseen	True	True	1.2955520153045654	2.979022026062012	1.0	25.0	1618407895.4776	False		False	0.0	673.0217001438141	102.0
1	ses-001	27	images_fmri/scarecrow/scarecrow_02s.jpg	unseen	6494	542	2	None	1377.0	19555.0	2.0	unseen-between	1	3	119.22	2.98	False	False	119.20435404777528	122.18250894546507	[['y', 120.37829089164734]]	-2.0	unseen	False	True	1.15829089164734	2.97815489768982	1.0	26.0	1618407899.9435	False		False			
1	ses-001	28	images_fmri/table/table_02s.jpg	seen	7478	624	2	None	1609.0	22726.0	2.0	seen-within	2	3	123.69	2.98	False	False	123.66576385498048	126.65294003486632	[['x', 124.76834011077881]]	2.0	seen	False	True	1.0783401107788109	2.9871761798858643	1.0	27.0	1618407904.4049	False		False	0.0	67.0434000492096	15.0
1	ses-001	29	images_fmri/crank/crank_02s.jpg	unseen	2126	178	2	None	433.0	6251.0	2.0	unseen-within	1	3	128.16	2.98	True	True	128.1509530544281	131.11549305915833	[['a', 129.67891001701355]]	-2.0	unseen	False	True	1.5189100170135532	2.9645400047302246	1.0	28.0	1618407908.8901	False		False			
1	ses-001	30	images_fmri/stair/stair_02s.jpg	unseen	7142	596	2	None	1533.0	21661.0	2.0	unseen-between	1	3	132.63	2.98	False	False	132.61751890182495	135.59953093528748	[['y', 133.95521998405457]]	-2.0	unseen	False	True	1.32521998405457	2.9820120334625244	1.0	29.0	1618407913.3567	False		False			
1	ses-001	31	images_fmri/rat/rat_02s.jpg	seen	6146	513	2	None	1286.0	18302.0	2.0	seen-within	2	3	137.1	2.98	True	True	137.0871548652649	140.06771206855774	[['b', 138.3731710910797]]	2.0	seen	False	True	1.2731710910797176	2.9805572032928467	1.0	30.0	1618407917.8263	False		False	0.0	422.0234999656677	71.0
1	ses-001	32	images_fmri/meat_grinder/meat_grinder_02s.jpg	unseen	4718	394	2	None	989.0	14085.0	2.0	unseen-between	1	3	141.57	2.98	True	False	141.5523760318756	144.53186702728271	[['a', 143.2044599056244]]	-2.0	unseen	False	True	1.6344599056243965	2.9794909954071045	1.0	31.0	1618407922.2915	False		False			
1	ses-001	33	images_fmri/whip/whip_02s.jpg	seen	8450	705	2	None	1810.0	25489.0	2.0	seen-within	2	3	146.04	2.98	True	True	146.0198049545288	148.998379945755	[['b', 147.32324695587158]]	2.0	seen	False	True	1.28324695587159	2.9785749912261963	1.0	32.0	1618407926.759	False		False	0.0	261.09420013427734	35.0
1	ses-001	34	images_fmri/hippopotamus/hippopotamus_02s.jpg	seen	3782	316	2	None	782.0	11185.0	2.0	seen-within	2	3	150.51	2.98	False	True	150.50039792060852	153.46881198883057	[['b', 151.37814593315125]]	2.0	seen	False	True	0.8681459331512542	2.968414068222046	1.0	33.0	1618407931.2396	False		False	0.0	147.51709985733032	33.0
1	ses-001	35	images_fmri/seagull/seagull_02s.jpg	unseen	6578	549	2	None	1396.0	19824.0	2.0	unseen-between	1	3	154.98	2.98	False	True	154.9669029712677	157.9502809047699	[['y', 156.0553789138794]]	-2.0	unseen	False	True	1.0753789138794048	2.9833779335021973	1.0	34.0	1618407935.7061	False		False			
1	ses-001	36	images_fmri/granite/granite_02s.jpg	unseen	3362	281	2	None	701.0	10038.0	2.0	unseen-between	1	3	159.45	2.98	True	False	159.43529796600342	162.41468596458435	[['a', 161.55841493606567]]	-2.0	unseen	False	True	2.108414936065685	2.9793879985809326	1.0	35.0	1618407940.1745	False		False			
1	ses-001	37	images_fmri/clock/clock_02n.jpg	unseen	1814	152	2	None	360.0	5203.0	2.0	unseen-within	1	3	163.92	2.98	False	True	163.90189695358276	166.88099098205566	[['y', 165.9491250514984]]	-2.0	unseen	False	True	2.0291250514984256	2.9790940284729004	1.0	36.0	1618407944.6411	False		False			
1	ses-001	38	images_fmri/burner/burner_02s.jpg	seen	1154	97	2	None	225.0	3357.0	2.0	seen-within	2	3	168.39	2.98	True	True	168.36975502967834	171.34798407554626	[['b', 169.5302929878235]]	2.0	seen	False	True	1.1402929878235	2.97822904586792	1.0	37.0	1618407949.1089	False		False	0.0	98.33170008659364	22.0
1	ses-001	39	images_fmri/joystick/joystick_02s.jpg	unseen	4034	337	2	None	853.0	12201.0	2.0	unseen-between	1	3	172.86	2.98	False	True	172.85025596618652	175.8150200843811	[['y', 174.26313495635986]]	-2.0	unseen	False	True	1.4031349563598496	2.96476411819458	1.0	38.0	1618407953.5894	False		False			
1	ses-001	40	images_fmri/clock/clock_02n.jpg	seen	1814	152	2	None	360.0	5203.0	2.0	seen-within	2	3	177.32999999999996	2.98	True	True	177.3164210319519	180.297700881958	[['b', 178.4501130580902]]	2.0	seen	False	True	1.1201130580902543	2.9812798500061035	1.0	39.0	1618407958.0556	False		False	0.0	13.414499998092651	3.0
1	ses-001	41	images_fmri/drill/drill_02s.jpg	unseen	2618	219	2	None	521.0	7560.0	2.0	unseen-between	1	3	181.8	2.98	False	False	181.78472995758057	184.76460695266724	[['y', 182.94081091880798]]	-2.0	unseen	False	True	1.140810918807972	2.97987699508667	1.0	40.0	1618407962.5239	False		False			
1	ses-001	42	images_fmri/piano/piano_02n.jpg	seen	5534	462	2	None	1166.0	16587.0	2.0	seen-within	2	3	186.27	2.98	True	True	186.2512140274048	189.23451685905457	[['b', 187.2502510547638]]	2.0	seen	False	True	0.9802510547637836	2.9833028316497803	1.0	41.0	1618407966.9904	False		False	0.0	314.7260000705719	47.0
1	ses-001	43	images_fmri/porcupine/porcupine_02s.jpg	unseen	5846	488	2	None	1227.0	17454.0	2.0	unseen-within	1	3	190.74	2.98	True	True	190.7178108692169	193.69701099395752	[['a', 192.19185304641724]]	-2.0	unseen	False	True	1.4518530464172272	2.9792001247406006	1.0	42.0	1618407971.457	False		False			
1	ses-001	44	images_fmri/giraffe/giraffe_02s.jpg	seen	3242	271	2	None	676.0	9672.0	2.0	seen-within	2	3	195.21	2.98	True	False	195.20058488845825	198.1637978553772	[['x', 197.011785030365]]	2.0	seen	False	True	1.8017850303649825	2.9632129669189453	1.0	43.0	1618407975.9398	False		False	0.0	722.1988000869751	113.0
1	ses-001	45	images_fmri/porcupine/porcupine_02s.jpg	seen	5846	488	2	None	1227.0	17454.0	2.0	seen-within	2	3	199.68	2.98	False	False	199.66582202911377	202.64702796936035	[['x', 201.00592708587646]]	2.0	seen	False	True	1.325927085876458	2.981205940246582	1.0	44.0	1618407980.405	False		False	0.0	8.947999954223633	2.0
1	ses-001	46	images_fmri/radish/radish_02s.jpg	unseen	6098	509	2	None	1275.0	18158.0	2.0	unseen-between	1	3	204.15	2.98	False	True	204.1340320110321	207.11828088760376	[['x', 207.2389988899231]]	-1.0	unseen	False	False	3.08899888992309	2.984248876571656	1.0	45.0	1618407984.8732	False		False			
1	ses-001	47	images_fmri/banner/banner_02s.jpg	seen	386	33	2	None	71.0	1047.0	2.0	seen-within	2	3	208.62	2.98	True	False	208.5966489315033	211.5800330638885	[['x', 210.01510500907898]]	2.0	seen	False	True	1.395105009078975	2.983384132385254	1.0	46.0	1618407989.3358	False		False	0.0	156.44199991226196	35.0
1	ses-001	48	images_fmri/beet/beet_02s.jpg	seen	554	47	2	None	115.0	1752.0	2.0	seen-within	2	3	213.09	2.98	True	True	213.06721997261047	216.05200099945068	[['b', 214.0948040485382]]	2.0	seen	False	True	1.0048040485382046	2.98478102684021	1.0	47.0	1618407993.8064	False		False	0.0	484.5914001464844	85.0
1	ses-001	49	images_fmri/groundhog/groundhog_02s.jpg	unseen	3482	291	2	None	719.0	10300.0	2.0	unseen-between	1	3	217.56	2.98	False	True	217.54873394966123	220.51362490653992	[['y', 219.3390040397644]]	-2.0	unseen	False	True	1.779004039764402	2.964890956878662	1.0	48.0	1618407998.2879	False		False			
1	ses-001	50	images_fmri/phone/phone_02s.jpg	unseen	5522	461	2	None	1162.0	16533.0	2.0	unseen-between	1	3	222.03	2.98	False	True	222.0174539089203	224.9976029396057	[['y', 223.5735239982605]]	-2.0	unseen	False	True	1.543523998260497	2.980149030685425	1.0	49.0	1618408002.7566	False		False			
1	ses-001	51	images_fmri/jersey/jersey_02s.jpg	seen	4022	336	2	None	847.0	12107.0	2.0	seen-within	2	3	226.5	2.98	False	False	226.48445892333984	229.4631450176239	[['x', 228.01617407798767]]	2.0	seen	False	True	1.516174077987671	2.9786860942840576	1.0	50.0	1618408007.2236	False		False	0.0	210.1014997959137	47.0
1	ses-001	52	images_fmri/pickle/pickle_02s.jpg	unseen	5546	463	2	None	1168.0	16612.0	2.0	unseen-between	1	3	230.97	2.98	False	False	230.95129108428955	233.9295630455017	[['y', 232.25861310958862]]	-2.0	unseen	False	True	1.2886131095886242	2.978271961212158	1.0	51.0	1618408011.6905	False		False			
1	ses-001	53	images_fmri/flyswatter/flyswatter_02s.jpg	seen	3038	254	2	None	624.0	9003.0	2.0	seen-within	2	3	235.44	2.98	True	False	235.43148708343503	238.3958330154419	[['x', 236.7604730129242]]	2.0	seen	False	True	1.3204730129241966	2.964345932006836	1.0	52.0	1618408016.1707	False		False	0.0	192.21329998970032	43.0
1	ses-001	54	images_fmri/thermometer/thermometer_02s.jpg	unseen	7634	637	2	None	1647.0	23254.0	2.0	unseen-between	1	3	239.91	2.98	False	False	239.89807391166687	242.86237692832947	[['y', 241.004399061203]]	-2.0	unseen	False	True	1.0943990612030063	2.9643030166625977	1.0	53.0	1618408020.6372	False		False			
1	ses-001	55	images_fmri/guacamole/guacamole_02s.jpg	unseen	3494	292	2	None	720.0	10312.0	2.0	unseen-within	1	3	244.38	2.98	False	False	244.36751985549927	247.34582591056824	[['y', 246.1962890625]]	-2.0	unseen	False	True	1.8162890625000043	2.9783060550689697	1.0	54.0	1618408025.1067	False		False			
1	ses-001	56	images_fmri/thermos/thermos_02s.jpg	seen	7646	638	2	None	1648.0	23266.0	2.0	seen-within	2	3	248.85	2.98	False	True	248.8328988552093	251.8173940181732	[['b', 249.98154497146606]]	2.0	seen	False	True	1.13154497146607	2.984495162963867	1.0	55.0	1618408029.5721	False		False	0.0	219.02779984474185	49.0
1	ses-001	57	images_fmri/guacamole/guacamole_02s.jpg	seen	3494	292	2	None	720.0	10312.0	2.0	seen-within	2	3	253.32	2.98	True	False	253.2993609905243	256.27895998954773	[['x', 254.6735119819641]]	2.0	seen	False	True	1.353511981964118	2.979598999023437	1.0	56.0	1618408034.0385	False		False	0.0	8.931800127029419	2.0
1	ses-001	58	images_fmri/locker/locker_02s.jpg	unseen	4502	376	2	None	942.0	13443.0	2.0	unseen-between	1	3	257.79	2.98	True	False	257.7809538841248	260.7452530860901	[['a', 260.0416910648346]]	-2.0	unseen	False	True	2.2516910648345743	2.964299201965332	1.0	57.0	1618408038.5201	False		False			
1	ses-001	59	images_fmri/crank/crank_02s.jpg	seen	2126	178	2	None	433.0	6251.0	2.0	seen-within	2	3	262.26	2.98	False	True	262.2495639324188	265.22858786582947	[['b', 263.4625129699707]]	2.0	seen	False	True	1.2025129699707122	2.9790239334106445	1.0	58.0	1618408042.9887	False		False	0.0	134.09859991073608	30.0
1	ses-001	60	images_fmri/chili/chili_02s.jpg	unseen	1682	141	2	None	328.0	4745.0	2.0	unseen-between	1	3	266.73	2.98	True	False	266.71607303619385	269.69712591171265	[['a', 268.19062995910645]]	-2.0	unseen	False	True	1.4606299591064271	2.981052875518799	1.0	59.0	1618408047.4552	False		False			
1	ses-002	1	images_fmri/kimono/kimono_02s.jpg	unseen	4130	345	2	None	874.0	12508.0	2.0	unseen-within	1	1	3.0	2.98	False	True	2.982348918914795	5.965061902999878	[['x', 5.087529897689819]]	-1.0	unseen	False	False	2.08752989768982	2.982712984085083	1.0	0.0	1619011539.8662	False		False			
1	ses-002	2	images_fmri/graffiti/graffiti_02s.jpg	unseen	3338	279	2	None	698.0	9990.0	2.0	unseen-within	1	1	7.47	2.98	False	False	7.465566873550415	10.428674936294556	[['b', 10.371484994888306]]	-1.0	unseen	False	False	2.901484994888306	2.9631080627441406	1.0	1.0	1619011544.3494	False		False			
1	ses-002	3	images_fmri/hairpin/hairpin_02s.jpg	seen	3566	298	2	None	738.0	10581.0	2.0	seen-between	2	1	11.94	2.98	False	True	11.930868864059448	14.912153959274292	[['x', 14.238647937774658]]	-1.0	unseen	True	False	2.2986479377746587	2.981285095214844	1.0	2.0	1619011548.8147	False		False	7.0	0.0	95.0
1	ses-002	5	images_fmri/graffiti/graffiti_02s.jpg	seen	3338	279	2	None	698.0	9990.0	2.0	seen-within	2	1	20.88	2.98	False	True	20.86192393302917	23.84845280647278	[['b', 22.115020990371704]]	2.0	seen	False	True	1.235020990371705	2.9865288734436035	1.0	4.0	1619011557.7458	False		False	0.0	13.396399974822998	3.0
1	ses-002	6	images_fmri/pocket/pocket_02s.jpg	seen	5750	480	2	None	1206.0	17132.0	2.0	seen-between	2	1	25.35	2.98	False	True	25.33245182037353	28.31153392791748	[['x', 27.474399089813232]]	-1.0	unseen	True	False	2.124399089813231	2.9790821075439453	1.0	5.0	1619011562.2163	False		False	7.0	0.0	94.0
1	ses-002	7	images_fmri/thumbtack/thumbtack_02s.jpg	seen	7682	641	2	None	1655.0	23364.0	2.0	seen-between	2	1	29.82	2.98	False	True	29.81491589546204	32.77806782722473	[['a', 32.1294629573822]]	1.0	seen	False	False	2.309462957382202	2.963151931762696	1.0	6.0	1619011566.6988	False		False	7.0	0.0	144.0
1	ses-002	8	images_fmri/walrus/walrus_02n.jpg	unseen	8306	693	2	None	1780.0	25091.0	2.0	unseen-within	1	1	34.29	2.98	True	True	34.28312802314758	37.261122941970825	[['x', 37.13990902900696]]	-1.0	unseen	False	False	2.849909029006959	2.977994918823242	1.0	7.0	1619011571.167	False		False			
1	ses-002	9	images_fmri/pocketknife/pocketknife_02s.jpg	unseen	5762	481	2	None	1208.0	17164.0	2.0	unseen-within	1	1	38.76	2.98	False	False	38.7469699382782	41.72790598869324	[['b', 41.3262300491333]]	-1.0	unseen	False	False	2.5662300491333028	2.980936050415039	1.0	8.0	1619011575.6308	False		False			
1	ses-002	10	images_fmri/battery/battery_02s.jpg	seen	446	38	2	None	98.0	1470.0	2.0	seen-between	2	1	43.23	2.98	False	True	43.21142792701721	46.19888782501221	[['x', 46.63114595413208]]	-1.0	unseen	True	False	3.401145954132083	2.987459897994995	1.0	9.0	1619011580.0953	False		False	7.0	0.0	181.0
1	ses-002	11	images_fmri/bus/bus_02n.jpg	seen	1178	99	2	None	227.0	3381.0	2.0	seen-within-between	3	1	47.7	2.98	True	False	47.68038392066956	50.6656699180603	[['b', 51.05983090400696]]	-1.0	unseen	True	False	3.359830904006955	2.985285997390747	1.0	10.0	1619011584.5643	False		False	7.0	0.0	86.0
1	ses-002	12	images_fmri/blazer/blazer_02s.jpg	unseen	710	60	2	None	138.0	2101.0	2.0	unseen-within	1	1	52.17	2.98	True	False	52.1610050201416	55.127321004867554	[['a', 54.6387140750885]]	-2.0	unseen	False	True	2.4687140750885	2.966315984725952	1.0	11.0	1619011589.0449	False		False			
1	ses-002	13	images_fmri/croissant/croissant_02s.jpg	unseen	2198	184	2	None	443.0	6407.0	2.0	unseen-within	1	1	56.64	2.98	False	False	56.63121390342712	59.611083984375	[['b', 59.212801933288574]]	-1.0	unseen	False	False	2.5728019332885737	2.979870080947876	1.0	12.0	1619011593.5151	False		False			
1	ses-002	14	images_fmri/face_mask/face_mask_02s.jpg	seen	2846	238	2	None	571.0	8257.0	2.0	seen-within-between	3	1	61.11	2.98	True	True	61.09853887557984	64.0815258026123	[['x', 64.19494605064392]]	-1.0	unseen	True	False	3.084946050643921	2.9829869270324707	1.0	13.0	1619011597.9824	False		False	7.0	0.0	158.0
1	ses-002	15	images_fmri/trumpet/trumpet_02s.jpg	unseen	8030	670	2	None	1722.0	24273.0	2.0	unseen-within	1	1	65.58	2.98	False	False	65.562912940979	68.54857087135315	[['a', 68.74254894256592]]	1.0	seen	True	False	3.16254894256592	2.985657930374145	1.0	14.0	1619011602.4468	False		False			
1	ses-002	16	images_fmri/hedgehog/hedgehog_02s.jpg	unseen	3722	311	2	None	775.0	11085.0	2.0	unseen-between	1	1	70.05	2.98	False	True	70.02696585655212	73.01301693916321	[['y', 72.76549792289734]]	-2.0	unseen	False	True	2.7154979228973417	2.986051082611084	1.0	15.0	1619011606.9108	False		False			
1	ses-002	17	images_fmri/towel_rack/towel_rack_02s.jpg	unseen	7898	659	2	None	1694.0	23899.0	2.0	unseen-within	1	1	74.52	2.98	False	True	74.50920486450195	77.47639298439026	[['x', 77.16979598999023]]	-1.0	unseen	False	False	2.6497959899902384	2.9671881198883057	1.0	16.0	1619011611.3931	False		False			
1	ses-002	18	images_fmri/thumbtack/thumbtack_02s.jpg	seen	7682	641	2	None	1655.0	23364.0	2.0	seen-between-within	3	1	78.99	2.98	True	False	78.9768738746643	81.95913290977478	[['x', 80.32328009605408]]	2.0	seen	False	True	1.3332800960540825	2.9822590351104736	1.0	17.0	1619011615.8607	False		False	0.0	49.16189980506897	11.0
1	ses-002	19	images_fmri/sushi/sushi_02s.jpg	unseen	7382	616	2	None	1589.0	22437.0	2.0	unseen-within	1	1	83.46	2.98	False	True	83.44344401359558	86.42838382720947	[['x', 86.66657900810242]]	-1.0	unseen	False	False	3.2065790081024232	2.984939813613892	1.0	18.0	1619011620.3273	False		False			
1	ses-002	20	images_fmri/hairpin/hairpin_02s.jpg	seen	3566	298	2	None	738.0	10581.0	2.0	seen-between-within	3	1	87.92999999999998	2.98	True	False	87.9087598323822	90.8919939994812	[['x', 89.26541209220886]]	2.0	seen	False	True	1.335412092208884	2.983234167098999	1.0	19.0	1619011624.7926	False		False	0.0	75.97790002822876	17.0
1	ses-002	21	images_fmri/groundhog/groundhog_02s.jpg	seen	3482	291	2	None	719.0	10300.0	2.0	seen-between	2	1	92.4	2.98	False	False	92.39448881149292	95.36253881454468	[['x', 94.66988611221313]]	2.0	seen	False	True	2.269886112213129	2.968050003051758	1.0	20.0	1619011629.2784	False		False	7.0	0.0	32.0
1	ses-002	22	images_fmri/deer/deer_02s.jpg	seen	2354	197	2	None	477.0	6898.0	2.0	seen-between	2	1	96.87	2.98	False	False	96.8648989200592	99.84509491920473	[['b', 99.85755109786987]]	-1.0	unseen	True	False	2.9875510978698685	2.980195999145508	1.0	21.0	1619011633.7488	False		False	7.0	0.0	128.0
1	ses-002	23	images_fmri/jeans/jeans_02s.jpg	unseen	3998	334	2	None	843.0	12047.0	2.0	unseen-between	1	1	101.34	2.98	False	True	101.32654881477356	104.30840182304382	[['x', 103.61777210235596]]	-1.0	unseen	False	False	2.2777721023559536	2.981853008270264	1.0	22.0	1619011638.2104	False		False			
1	ses-002	24	images_fmri/bracelet2/bracelet2_02s.jpg	seen	950	80	2	None	189.0	2861.0	2.0	seen-between	2	1	105.81	2.98	True	True	105.7940719127655	108.77619695663452	[['y', 108.52000999450684]]	1.0	seen	False	False	2.7100099945068337	2.9821250438690186	1.0	23.0	1619011642.6779	False		False	7.0	0.0	97.0
1	ses-002	25	images_fmri/jukebox/jukebox_02s.jpg	seen	4046	338	2	None	858.0	12267.0	2.0	seen-between	2	1	110.28	2.98	True	True	110.2597029209137	113.2414529323578	[['x', 112.21108603477478]]	-1.0	unseen	True	False	1.9310860347747791	2.981750011444092	1.0	24.0	1619011647.1436	False		False	7.0	0.0	95.0
1	ses-002	26	images_fmri/dustpan/dustpan_02n.jpg	seen	2654	222	2	None	536.0	7777.0	2.0	seen-within-between	3	1	114.75	2.98	True	False	114.74411296844482	117.70878195762634	[['y', 117.57342791557312]]	1.0	seen	False	False	2.82342791557312	2.9646689891815186	1.0	25.0	1619011651.628	False		False	7.0	0.0	125.0
1	ses-002	27	images_fmri/trumpet/trumpet_02s.jpg	seen	8030	670	2	None	1722.0	24273.0	2.0	seen-within	2	1	119.22	2.98	False	False	119.20794582366943	122.1937448978424	[['x', 120.34423899650574]]	2.0	seen	False	True	1.1242389965057384	2.9857990741729736	1.0	26.0	1619011656.0918	False		False	0.0	53.644999980926514	12.0
1	ses-002	28	images_fmri/guacamole/guacamole_02s.jpg	seen	3494	292	2	None	720.0	10312.0	2.0	seen-within-between	3	1	123.69	2.98	False	False	123.67704486846924	126.65898299217224	[['a', 126.21781206130981]]	1.0	seen	False	False	2.5278120613098167	2.981938123703003	1.0	27.0	1619011660.5609	False		False	7.0	0.0	31.0
1	ses-002	29	images_fmri/bracelet2/bracelet2_02s.jpg	seen	950	80	2	None	189.0	2861.0	2.0	seen-between-within	3	1	128.16	2.98	True	False	128.14230489730835	131.12735080718994	[['x', 129.20240807533264]]	2.0	seen	False	True	1.042408075332645	2.985045909881592	1.0	28.0	1619011665.0262	False		False	0.0	22.34829998016357	5.0
1	ses-002	30	images_fmri/girl/girl_02s.jpg	seen	3254	272	2	None	677.0	9696.0	2.0	seen-within-between	3	1	132.63	2.98	False	True	132.6094889640808	135.59232783317566	[['b', 134.19892191886902]]	2.0	seen	False	True	1.568921918869023	2.9828388690948486	1.0	29.0	1619011669.4934	False		False	7.0	0.0	164.0
1	ses-002	31	images_fmri/knot/knot_02s.jpg	unseen	4166	348	2	None	884.0	12655.0	2.0	unseen-between	1	1	137.1	2.98	False	False	137.09228587150574	140.06138682365415	[['b', 139.30771589279175]]	-1.0	unseen	False	False	2.2077158927917537	2.969100952148437	1.0	30.0	1619011673.9762	False		False			
1	ses-002	32	images_fmri/spareribs/spareribs_02s.jpg	unseen	7022	586	2	None	1506.0	21298.0	2.0	unseen-within	1	1	141.57	2.98	True	True	141.5619809627533	144.5453519821167	[['x', 144.8543930053711]]	-1.0	unseen	False	False	3.284393005371101	2.983371019363404	1.0	31.0	1619011678.4459	False		False			
1	ses-002	33	images_fmri/powder/powder_02s.jpg	unseen	5918	494	2	None	1237.0	17591.0	2.0	unseen-within	1	1	146.04	2.98	True	False	146.0253548622131	149.00862979888916	[['b', 148.7307059764862]]	-1.0	unseen	False	False	2.690705976486214	2.9832749366760254	1.0	32.0	1619011682.9092	False		False			
1	ses-002	34	images_fmri/stapler/stapler_02s.jpg	seen	7178	599	2	None	1540.0	21755.0	2.0	seen-between	2	1	150.51	2.98	True	True	150.49293398857117	153.47432899475098	[['x', 152.88317894935608]]	-1.0	unseen	True	False	2.373178949356088	2.9813950061798096	1.0	33.0	1619011687.3768	False		False	7.0	0.0	167.0
1	ses-002	35	images_fmri/trowel/trowel_02s.jpg	seen	8006	668	2	None	1720.0	24244.0	2.0	seen-between	2	1	154.98	2.98	True	True	154.9591510295868	157.94280195236206	[['y', 158.4068911075592]]	1.0	seen	False	False	3.4268911075592143	2.983650922775269	1.0	34.0	1619011691.843	False		False	7.0	0.0	74.0
1	ses-002	36	images_fmri/contact_lens/contact_lens_02s.jpg	unseen	1994	167	2	None	398.0	5719.0	2.0	unseen-within	1	1	159.45	2.98	False	False	159.4416379928589	162.4075448513031	[['y', 162.27019691467285]]	-2.0	unseen	False	True	2.820196914672863	2.965906858444214	1.0	35.0	1619011696.3255	False		False			
1	ses-002	37	images_fmri/lion/lion_02s.jpg	seen	4430	370	2	None	934.0	13333.0	2.0	seen-within-between	3	1	163.92	2.98	True	False	163.90802097320557	166.89181280136108	[['b', 167.3073558807373]]	-1.0	unseen	True	False	3.387355880737317	2.9837918281555176	1.0	36.0	1619011700.7919	False		False	7.0	0.0	167.0
1	ses-002	38	images_fmri/trowel/trowel_02s.jpg	seen	8006	668	2	None	1720.0	24244.0	2.0	seen-between-within	3	1	168.39	2.98	False	True	168.3732979297638	171.3580939769745	[['b', 169.71116495132446]]	2.0	seen	False	True	1.3211649513244763	2.9847960472106934	1.0	37.0	1619011705.2572	False		False	0.0	13.414200067520142	3.0
1	ses-002	39	images_fmri/locker/locker_02s.jpg	seen	4502	376	2	None	942.0	13443.0	2.0	seen-between	2	1	172.86	2.98	True	False	172.84263491630554	175.8260588645935	[['b', 176.3788549900055]]	-1.0	unseen	True	False	3.5188549900054795	2.983423948287964	1.0	38.0	1619011709.7265	False		False	7.0	0.0	41.0
1	ses-002	40	images_fmri/burner/burner_02s.jpg	seen	1154	97	2	None	225.0	3357.0	2.0	seen-within-between	3	1	177.32999999999996	2.98	True	True	177.30759191513062	180.2926948070526	[['x', 181.1948630809784]]	-1.0	unseen	True	False	3.864863080978438	2.985102891921997	1.0	39.0	1619011714.1915	False		False	7.0	0.0	62.0
1	ses-002	41	images_fmri/ferret/ferret_02s.jpg	seen	2882	241	2	None	579.0	8373.0	2.0	seen-within-between	3	1	181.8	2.98	False	True	181.78967189788816	184.7581918239593	[['x', 185.07151889801025]]	-1.0	unseen	True	False	3.2715188980102425	2.968519926071167	1.0	40.0	1619011718.6735	False		False	7.0	0.0	113.0
1	ses-002	42	images_fmri/llama/llama_02s.jpg	seen	4466	373	2	None	939.0	13406.0	2.0	seen-within	2	1	186.27	2.98	True	True	186.25744700431824	189.242782831192	[['b', 188.26872897148132]]	2.0	seen	False	True	1.998728971481313	2.98533582687378	1.0	41.0	1619011723.1413	False		False	0.0	169.8582000732422	38.0
1	ses-002	43	images_fmri/pie/pie_02s.jpg	seen	5558	464	2	None	1169.0	16628.0	2.0	seen-between	2	1	190.74	2.98	False	True	190.7251169681549	193.7073450088501	[['x', 192.02168893814087]]	-1.0	unseen	True	False	1.28168893814086	2.9822280406951904	1.0	42.0	1619011727.609	False		False	7.0	0.0	80.0
1	ses-002	44	images_fmri/sweatsuit/sweatsuit_02s.jpg	seen	7406	618	2	None	1594.0	22520.0	2.0	seen-within-between	3	1	195.21	2.98	True	True	195.1920568943024	198.17400789260864	[['x', 197.89127492904663]]	-1.0	unseen	True	False	2.681274929046623	2.9819509983062744	1.0	43.0	1619011732.0759	False		False	7.0	0.0	187.0
1	ses-002	45	images_fmri/kimono/kimono_02s.jpg	seen	4130	345	2	None	874.0	12508.0	2.0	seen-within	2	1	199.68	2.98	False	False	199.65702986717224	202.64215993881223	[['x', 200.843514919281]]	2.0	seen	False	True	1.163514919280999	2.985130071640014	1.0	44.0	1619011736.5409	False		False	0.0	196.67470002174375	44.0
1	ses-002	46	images_fmri/blazer/blazer_02s.jpg	seen	710	60	2	None	138.0	2101.0	2.0	seen-within	2	1	204.15	2.98	False	True	204.1409089565277	207.1085879802704	[['b', 205.22111296653748]]	2.0	seen	False	True	1.07111296653747	2.967679023742676	1.0	45.0	1619011741.0248	False		False	0.0	151.97990012168884	34.0
1	ses-002	47	images_fmri/tamale/tamale_02s.jpg	seen	7550	630	2	None	1619.0	22856.0	2.0	seen-within-between	3	1	208.62	2.98	True	True	208.60803389549253	211.58906483650208	[['b', 210.02797293663025]]	2.0	seen	False	True	1.4079729366302445	2.981030941009521	1.0	46.0	1619011745.4919	False		False	7.0	0.0	205.0
1	ses-002	48	images_fmri/bamboo/bamboo_02s.jpg	unseen	338	29	2	None	63.0	933.0	2.0	unseen-between	1	1	213.09	2.98	True	True	213.07491397857663	216.05534887313843	[['x', 215.63598799705505]]	-1.0	unseen	False	False	2.5459879970550503	2.980434894561768	1.0	47.0	1619011749.9588	False		False			
1	ses-002	49	images_fmri/kangaroo/kangaroo_02s.jpg	unseen	4070	340	2	None	863.0	12334.0	2.0	unseen-between	1	1	217.56	2.98	False	False	217.54110884666443	220.52325797081	[['b', 219.29996490478516]]	-1.0	unseen	False	False	1.739964904785154	2.982149124145508	1.0	48.0	1619011754.425	False		False			
1	ses-002	50	images_fmri/piano/piano_02n.jpg	seen	5534	462	2	None	1166.0	16587.0	2.0	seen-within-between	3	1	222.03	2.98	True	False	222.02456188201904	224.99080896377563	[['y', 224.8242540359497]]	1.0	seen	False	False	2.794254035949706	2.966247081756592	1.0	49.0	1619011758.9084	False		False	7.0	0.0	68.0
1	ses-002	51	images_fmri/flower/flower_02s.jpg	seen	3026	253	2	None	620.0	8939.0	2.0	seen-between	2	1	226.5	2.98	True	True	226.48995089530945	229.4718399047852	[['x', 227.96327209472656]]	-1.0	unseen	True	False	1.4632720947265625	2.981889009475708	1.0	50.0	1619011763.3738	False		False	7.0	0.0	142.0
1	ses-002	52	images_fmri/jersey/jersey_02s.jpg	seen	4022	336	2	None	847.0	12107.0	2.0	seen-within-between	3	1	230.97	2.98	True	False	230.95757794380188	233.93956184387207	[['y', 233.70720291137695]]	1.0	seen	False	False	2.7372029113769543	2.9819839000701904	1.0	51.0	1619011767.8415	False		False	7.0	0.0	61.0
1	ses-002	53	images_fmri/table/table_02s.jpg	seen	7478	624	2	None	1609.0	22726.0	2.0	seen-within-between	3	1	235.44	2.98	True	False	235.4225468635559	238.4106960296631	[['y', 238.52581095695496]]	1.0	seen	False	False	3.0858109569549583	2.9881491661071777	1.0	52.0	1619011772.3064	False		False	7.0	0.0	85.0
1	ses-002	54	images_fmri/powder/powder_02s.jpg	seen	5918	494	2	None	1237.0	17591.0	2.0	seen-within	2	1	239.91	2.98	False	False	239.8891489505768	242.8775539398193	[['x', 240.94440293312073]]	2.0	seen	False	True	1.034402933120731	2.9884049892425537	1.0	53.0	1619011776.773	False		False	0.0	93.86380004882812	21.0
1	ses-002	55	images_fmri/yo-yo/yo-yo_02s.jpg	seen	8606	718	2	None	1848.0	26007.0	2.0	seen-between	2	1	244.38	2.98	False	False	244.37305283546448	247.33780193328852	[['a', 247.2745339870453]]	1.0	seen	False	False	2.8945339870452926	2.9647490978240967	1.0	54.0	1619011781.2569	False		False	7.0	0.0	100.0
1	ses-002	56	images_fmri/yo-yo/yo-yo_02s.jpg	seen	8606	718	2	None	1848.0	26007.0	2.0	seen-between-within	3	1	248.85	2.98	True	False	248.8390598297119	251.8238379955292	[['x', 249.94365906715393]]	2.0	seen	False	True	1.0936590671539363	2.9847781658172607	1.0	55.0	1619011785.7229	False		False	0.0	4.465999841690064	1.0
1	ses-002	57	images_fmri/polaroid/polaroid_02s.jpg	unseen	5786	483	2	None	1213.0	17242.0	2.0	unseen-between	1	1	253.32	2.98	True	False	253.30640697479248	256.287565946579	[['b', 256.2316780090332]]	-1.0	unseen	False	False	2.91167800903321	2.981158971786499	1.0	56.0	1619011790.1903	False		False			
1	ses-002	58	images_fmri/thermos/thermos_02s.jpg	seen	7646	638	2	None	1648.0	23266.0	2.0	seen-within-between	3	1	257.79	2.98	True	False	257.7721998691559	260.75556683540344	[['x', 259.6329879760742]]	2.0	seen	False	True	1.8429879760741985	2.9833669662475586	1.0	57.0	1619011794.6561	False		False	7.0	0.0	62.0
1	ses-002	59	images_fmri/jukebox/jukebox_02s.jpg	seen	4046	338	2	None	858.0	12267.0	2.0	seen-between-within	3	1	262.26	2.98	True	True	262.2388229370117	265.22387886047363	[['b', 263.3133420944214]]	2.0	seen	False	True	1.0533420944213958	2.985055923461914	1.0	58.0	1619011799.1227	False		False	0.0	151.97909998893738	34.0
1	ses-002	60	images_fmri/barrel/barrel_02s.jpg	unseen	410	35	2	None	77.0	1137.0	2.0	unseen-within	1	1	266.73	2.98	True	False	266.72336196899414	269.6886489391327	[['b', 268.87995409965515]]	-1.0	unseen	False	False	2.149954099655133	2.96528697013855	1.0	59.0	1619011803.6072	False		False			
1	ses-002	1	images_fmri/fireworks/fireworks_02s.jpg	unseen	2954	247	2	None	599.0	8651.0	2.0	unseen-within	1	2	3.0	2.98	False	False	2.9834189414978027	5.962893009185791	[['b', 5.138823986053467]]	-1.0	unseen	False	False	2.138823986053467	2.9794740676879883	1.0	0.0	1619011915.8407	False		False			
1	ses-002	2	images_fmri/sim_card/sim_card_02s.jpg	seen	6782	566	2	None	1447.0	20517.0	2.0	seen-within-between	3	2	7.47	2.98	True	True	7.465487957000732	10.445518970489502	[['b', 9.794004917144775]]	2.0	seen	False	True	2.324004917144776	2.980031013488769	1.0	1.0	1619011920.3228	False		False	7.0	0.0	202.0
1	ses-002	3	images_fmri/ant/ant_02s.jpg	seen	122	11	2	None	25.0	345.0	2.0	seen-between	2	2	11.94	2.98	True	True	11.933711051940918	14.911906957626345	[['x', 13.702900886535645]]	-1.0	unseen	True	False	1.762900886535645	2.978195905685425	1.0	2.0	1619011924.791	False		False	7.0	0.0	171.0
1	ses-002	4	images_fmri/hay/hay_02s.jpg	seen	3674	307	2	None	762.0	10910.0	2.0	seen-between	2	2	16.41	2.98	True	False	16.396970987319946	19.378671884536743	[['x', 18.796674013137817]]	2.0	seen	False	True	2.386674013137817	2.981700897216797	1.0	3.0	1619011929.2543	False		False	7.0	0.0	104.0
1	ses-002	5	images_fmri/boxer_shorts/boxer_shorts_02s.jpg	unseen	902	76	2	None	183.0	2772.0	2.0	unseen-within	1	2	20.88	2.98	True	True	20.863237857818604	23.84625196456909	[['x', 22.976517915725708]]	-1.0	unseen	False	False	2.096517915725709	2.9830141067504883	1.0	4.0	1619011933.7205	False		False			
1	ses-002	6	images_fmri/guillotine/guillotine_02s.jpg	seen	3518	294	2	None	722.0	10355.0	2.0	seen-between	2	2	25.35	2.98	False	False	25.346067905426025	28.31168293952942	[['a', 27.91700291633606]]	1.0	seen	False	False	2.567002916336058	2.9656150341033936	1.0	5.0	1619011938.2034	False		False	7.0	0.0	149.0
1	ses-002	7	images_fmri/bucket/bucket_02n.jpg	seen	1070	90	2	None	210.0	3154.0	2.0	seen-between	2	2	29.82	2.98	False	False	29.813513040542603	32.79375004768372	[['b', 31.61030888557434]]	-1.0	unseen	True	False	1.7903088855743403	2.9802370071411133	1.0	6.0	1619011942.6708	False		False	7.0	0.0	221.0
1	ses-002	8	images_fmri/pocket/pocket_02s.jpg	seen	5750	480	2	None	1206.0	17132.0	2.0	seen-between-within	3	2	34.29	2.98	True	True	34.27945303916931	37.26147794723511	[['b', 35.596765995025635]]	2.0	seen	False	True	1.3067659950256356	2.982024908065796	1.0	7.0	1619011947.1368	False		False	0.0	384.9205000400543	62.0
1	ses-002	9	images_fmri/wolf/wolf_02s.jpg	seen	8534	712	2	None	1832.0	25795.0	2.0	seen-within-between	3	2	38.76	2.98	True	False	38.74666690826416	41.72803592681885	[['y', 40.91608691215515]]	1.0	seen	False	False	2.1560869121551534	2.9813690185546875	1.0	8.0	1619011951.604	False		False	7.0	0.0	132.0
1	ses-002	10	images_fmri/coleslaw/coleslaw_02n.jpg	unseen	1922	161	2	None	387.0	5567.0	2.0	unseen-within	1	2	43.23	2.98	True	False	43.212661027908325	46.19922995567322	[['b', 45.93810296058655]]	-1.0	unseen	False	False	2.708102960586551	2.9865689277648926	1.0	9.0	1619011956.07	False		False			
1	ses-002	11	images_fmri/sock/sock_02s.jpg	unseen	6938	579	2	None	1490.0	21089.0	2.0	unseen-between	1	2	47.7	2.98	False	False	47.69672203063965	50.6656448841095	[['b', 49.516289949417114]]	-1.0	unseen	False	False	1.816289949417112	2.9689228534698486	1.0	10.0	1619011960.554	False		False			
1	ses-002	12	images_fmri/space_shuttle/space_shuttle_02s.jpg	unseen	7010	585	2	None	1502.0	21247.0	2.0	unseen-within	1	2	52.17	2.98	False	False	52.16444993019104	55.14643597602844	[['b', 54.13408398628235]]	-1.0	unseen	False	False	1.964083986282347	2.9819860458374023	1.0	11.0	1619011965.0218	False		False			
1	ses-002	13	images_fmri/diaper/diaper_02s.jpg	unseen	2390	200	2	None	486.0	7028.0	2.0	unseen-within	1	2	56.64	2.98	True	False	56.63029193878174	59.61290693283081	[['b', 58.911092042922974]]	-1.0	unseen	False	False	2.271092042922973	2.9826149940490723	1.0	12.0	1619011969.4876	False		False			
1	ses-002	14	images_fmri/stapler/stapler_02s.jpg	seen	7178	599	2	None	1540.0	21755.0	2.0	seen-between-within	3	2	61.11	2.98	True	True	61.09838795661926	64.07751083374023	[['b', 62.40317392349243]]	2.0	seen	False	True	1.2931739234924322	2.979122877120972	1.0	13.0	1619011973.9557	False		False	0.0	286.5788998603821	40.0
1	ses-002	15	images_fmri/stopwatch/stopwatch_02s.jpg	seen	7250	605	2	None	1563.0	22071.0	2.0	seen-between	2	2	65.58	2.98	True	True	65.56141901016235	68.54326391220093	[['x', 67.83731293678284]]	-1.0	unseen	True	False	2.2573129367828386	2.981844902038574	1.0	14.0	1619011978.4187	False		False	7.0	0.0	184.0
1	ses-002	16	images_fmri/possum/possum_02s.jpg	unseen	5858	489	2	None	1229.0	17479.0	2.0	unseen-within	1	2	70.05	2.98	True	True	70.04479694366455	73.01186990737915	[['x', 72.69667482376099]]	-1.0	unseen	False	False	2.646674823760989	2.9670729637146	1.0	15.0	1619011982.9021	False		False			
1	ses-002	17	images_fmri/ladder/ladder_02s.jpg	seen	4190	350	2	None	887.0	12695.0	2.0	seen-within-between	3	2	74.52	2.98	False	True	74.51160001754761	77.49260401725769	[['a', 77.2135260105133]]	1.0	seen	False	False	2.6935260105133096	2.981003999710083	1.0	16.0	1619011987.3689	False		False	7.0	0.0	237.0
1	ses-002	18	images_fmri/game/game_02s.jpg	unseen	3146	263	2	None	655.0	9408.0	2.0	unseen-within	1	2	78.99	2.98	True	True	78.97632002830505	81.9612729549408	[['x', 81.97066283226013]]	-1.0	unseen	False	False	2.980662832260137	2.984952926635742	1.0	17.0	1619011991.8336	False		False			
1	ses-002	19	images_fmri/flower/flower_02s.jpg	seen	3026	253	2	None	620.0	8939.0	2.0	seen-between-within	3	2	83.46	2.98	False	True	83.44358587265015	86.42854285240173	[['b', 84.57727098464966]]	2.0	seen	False	True	1.1172709846496645	2.984956979751587	1.0	18.0	1619011996.3009	False		False	0.0	232.927099943161	28.0
1	ses-002	20	images_fmri/coleslaw/coleslaw_02n.jpg	seen	1922	161	2	None	387.0	5567.0	2.0	seen-within	2	2	87.92999999999998	2.98	False	True	87.9117259979248	90.89880895614624	[['b', 89.03311705589294]]	2.0	seen	False	True	1.103117055892966	2.9870829582214355	1.0	19.0	1619012000.769	False		False	0.0	44.69900012016296	10.0
1	ses-002	21	images_fmri/towel_rack/towel_rack_02s.jpg	seen	7898	659	2	None	1694.0	23899.0	2.0	seen-within	2	2	92.4	2.98	False	False	92.39705085754396	95.36391305923462	[['x', 93.49910688400269]]	2.0	seen	False	True	1.09910688400268	2.966862201690674	1.0	20.0	1619012005.2544	False		False	0.0	393.86129999160767	64.0
1	ses-002	22	images_fmri/kettle/kettle_02s.jpg	unseen	4106	343	2	None	869.0	12427.0	2.0	unseen-within	1	2	96.87	2.98	True	True	96.85989594459534	99.84349799156188	[['a', 99.25087690353394]]	-2.0	unseen	False	True	2.380876903533931	2.9836020469665527	1.0	21.0	1619012009.7172	False		False			
1	ses-002	23	images_fmri/odometer/odometer_02s.jpg	seen	5138	429	2	None	1072.0	15237.0	2.0	seen-between	2	2	101.34	2.98	True	True	101.32646489143372	104.30913996696472	[['a', 103.86060404777527]]	-2.0	unseen	True	True	2.520604047775265	2.982675075531006	1.0	22.0	1619012014.1838	False		False	7.0	0.0	196.0
1	ses-002	24	images_fmri/guillotine/guillotine_02s.jpg	seen	3518	294	2	None	722.0	10355.0	2.0	seen-between-within	3	2	105.81	2.98	False	False	105.7929949760437	108.77756094932556	[['x', 106.91754102706909]]	2.0	seen	False	True	1.1075410270690895	2.9845659732818604	1.0	23.0	1619012018.6503	False		False	0.0	80.44690012931824	18.0
1	ses-002	25	images_fmri/drum/drum_02s.jpg	unseen	2630	220	2	None	523.0	7589.0	2.0	unseen-within	1	2	110.28	2.98	False	False	110.25953793525696	113.2437069416046	[['b', 113.15531587600708]]	-1.0	unseen	False	False	2.875315876007079	2.984169006347656	1.0	24.0	1619012023.1168	False		False			
1	ses-002	26	images_fmri/footbath/footbath_02s.jpg	unseen	3074	257	2	None	632.0	9117.0	2.0	unseen-between	1	2	114.75	2.98	False	False	114.7440149784088	117.71012091636658	[['b', 117.77397894859314]]	-1.0	unseen	False	False	3.02397894859314	2.966105937957764	1.0	25.0	1619012027.6013	False		False			
1	ses-002	27	images_fmri/sunroof/sunroof_02s.jpg	seen	7370	615	2	None	1587.0	22409.0	2.0	seen-within-between	3	2	119.22	2.98	False	False	119.2095558643341	122.19261693954468	[['a', 121.5537040233612]]	1.0	seen	False	False	2.333704023361207	2.983061075210572	1.0	26.0	1619012032.0669	False		False	7.0	0.0	167.0
1	ses-002	28	images_fmri/giraffe/giraffe_02s.jpg	seen	3242	271	2	None	676.0	9672.0	2.0	seen-within-between	3	2	123.69	2.98	True	True	123.67771291732788	126.6591339111328	[['y', 125.10502696037292]]	1.0	seen	False	False	1.415026960372927	2.981420993804932	1.0	27.0	1619012036.535	False		False	7.0	0.0	104.0
1	ses-002	29	images_fmri/cauliflower/cauliflower_02s.jpg	seen	1502	126	2	None	289.0	4220.0	2.0	seen-within-between	3	2	128.16	2.98	True	True	128.14242601394653	131.1256730556488	[['y', 130.00472593307495]]	1.0	seen	False	False	1.8447259330749544	2.9832470417022705	1.0	28.0	1619012040.9997	False		False	7.0	0.0	221.0
1	ses-002	30	images_fmri/drum/drum_02s.jpg	seen	2630	220	2	None	523.0	7589.0	2.0	seen-within	2	2	132.63	2.98	False	True	132.60936284065247	135.59355092048645	[['b', 133.647127866745]]	2.0	seen	False	True	1.0171278667449997	2.9841880798339844	1.0	29.0	1619012045.4667	False		False	0.0	22.349900007247925	5.0
1	ses-002	31	images_fmri/snowplow/snowplow_02s.jpg	seen	6926	578	2	None	1485.0	21027.0	2.0	seen-between	2	2	137.1	2.98	False	True	137.0953688621521	140.06429886817932	[['a', 139.73784589767456]]	1.0	seen	False	False	2.6378458976745662	2.9689300060272217	1.0	30.0	1619012049.9527	False		False	7.0	0.0	250.0
1	ses-002	32	images_fmri/hamburger/hamburger_02s.jpg	seen	3578	299	2	None	741.0	10620.0	2.0	seen-between	2	2	141.57	2.98	True	True	141.56169199943542	144.5442419052124	[['b', 144.01787090301514]]	2.0	seen	False	True	2.4478709030151435	2.982549905776977	1.0	31.0	1619012054.419	False		False	7.0	0.0	243.0
1	ses-002	33	images_fmri/iguana/iguana_02s.jpg	seen	3926	328	2	None	826.0	11803.0	2.0	seen-between	2	2	146.04	2.98	False	False	146.02897906303406	149.01253294944763	[['y', 149.0946729183197]]	-2.0	unseen	True	True	3.05467291831971	2.983553886413574	1.0	32.0	1619012058.8863	False		False	7.0	0.0	203.0
1	ses-002	34	images_fmri/tag/tag_02s.jpg	seen	7526	628	2	None	1617.0	22827.0	2.0	seen-within-between	3	2	150.51	2.98	False	False	150.49669003486633	153.47586798667908	[['a', 152.59140801429749]]	1.0	seen	False	False	2.0814080142974944	2.979177951812744	1.0	33.0	1619012063.354	False		False	7.0	0.0	240.0
1	ses-002	35	images_fmri/smoke_alarm/smoke_alarm_02s.jpg	unseen	6866	573	2	None	1474.0	20878.0	2.0	unseen-between	1	2	154.98	2.98	True	False	154.97959804534912	157.94614505767822	[['b', 157.24332284927368]]	-1.0	unseen	False	False	2.263322849273692	2.9665470123291016	1.0	34.0	1619012067.8369	False		False			
1	ses-002	36	images_fmri/iguana/iguana_02s.jpg	seen	3926	328	2	None	826.0	11803.0	2.0	seen-between-within	3	2	159.45	2.98	False	False	159.44467306137085	162.4283368587494	[['x', 160.53764295578003]]	2.0	seen	False	True	1.0876429557800409	2.98366379737854	1.0	35.0	1619012072.302	False		False	0.0	13.41569995880127	3.0
1	ses-002	37	images_fmri/sushi/sushi_02s.jpg	seen	7382	616	2	None	1589.0	22437.0	2.0	seen-within	2	2	163.92	2.98	True	False	163.912260055542	166.8912980556488	[['x', 165.09038090705872]]	2.0	seen	False	True	1.1703809070587283	2.9790380001068115	1.0	36.0	1619012076.7696	False		False	0.0	456.4422998428345	78.0
1	ses-002	38	images_fmri/crayfish/crayfish_02s.jpg	seen	2150	180	2	None	435.0	6284.0	2.0	seen-within-between	3	2	168.39	2.98	False	False	168.3781259059906	171.35911989212036	[['b', 171.23335695266724]]	-1.0	unseen	True	False	2.84335695266725	2.9809939861297607	1.0	37.0	1619012081.2354	False		False	7.0	0.0	150.0
1	ses-002	39	images_fmri/tortilla/tortilla_02s.jpg	unseen	7850	655	2	None	1688.0	23815.0	2.0	unseen-between	1	2	172.86	2.98	True	False	172.84065794944763	175.82399106025696	[['a', 175.29067587852478]]	-2.0	unseen	False	True	2.430675878524766	2.983333110809326	1.0	38.0	1619012085.698	False		False			
1	ses-002	40	images_fmri/banner/banner_02s.jpg	seen	386	33	2	None	71.0	1047.0	2.0	seen-within-between	3	2	177.32999999999996	2.98	False	True	177.32589888572693	180.29149889945984	[['b', 179.18022084236145]]	2.0	seen	False	True	1.8502208423614943	2.96560001373291	1.0	39.0	1619012090.1832	False		False	7.0	0.0	113.0
1	ses-002	41	images_fmri/rhinoceros/rhinoceros_02s.jpg	unseen	6242	521	2	None	1307.0	18607.0	2.0	unseen-between	1	2	181.8	2.98	True	False	181.7928729057312	184.7769520282745	[['b', 184.31213688850403]]	-1.0	unseen	False	False	2.512136888504017	2.984079122543335	1.0	40.0	1619012094.6502	False		False			
1	ses-002	42	images_fmri/cow/cow_02s.jpg	unseen	2102	176	2	None	427.0	6151.0	2.0	unseen-within	1	2	186.27	2.98	True	False	186.262943983078	189.2414529323578	[['a', 188.52260303497314]]	-2.0	unseen	False	True	2.2526030349731343	2.978508949279785	1.0	41.0	1619012099.1202	False		False			
1	ses-002	43	images_fmri/sombrero/sombrero_02s.jpg	seen	6974	582	2	None	1496.0	21167.0	2.0	seen-within-between	3	2	190.74	2.98	False	True	190.72501802444452	193.706090927124	[['x', 193.62701201438904]]	-1.0	unseen	True	False	2.887012014389029	2.981072902679444	1.0	42.0	1619012103.5823	False		False	7.0	0.0	264.0
1	ses-002	44	images_fmri/pancake/pancake_02n.jpg	unseen	5282	441	2	None	1105.0	15723.0	2.0	unseen-between	1	2	195.21	2.98	False	False	195.19067287445068	198.17582201957703	[['b', 198.5387179851532]]	-1.0	unseen	False	False	3.3287179851531903	2.9851491451263428	1.0	43.0	1619012108.048	False		False			
1	ses-002	45	images_fmri/tongs/tongs_02s.jpg	unseen	7802	651	2	None	1675.0	23643.0	2.0	unseen-within	1	2	199.68	2.98	True	True	199.67327189445496	202.63992404937744	[['x', 201.65442490577698]]	-1.0	unseen	False	False	1.9744249057769707	2.9666521549224854	1.0	44.0	1619012112.5306	False		False			
1	ses-002	46	images_fmri/stopwatch/stopwatch_02s.jpg	seen	7250	605	2	None	1563.0	22071.0	2.0	seen-between-within	3	2	204.15	2.98	False	True	204.14092803001404	207.12388586997983	[['b', 205.35084700584412]]	2.0	seen	False	True	1.2008470058441103	2.9829578399658203	1.0	45.0	1619012116.9982	False		False	0.0	138.57949995994568	31.0
1	ses-002	47	images_fmri/gun/gun_02s.jpg	unseen	3542	296	2	None	728.0	10437.0	2.0	unseen-between	1	2	208.62	2.98	False	False	208.60872888565063	211.5903098583221	[['b', 211.36581683158875]]	-1.0	unseen	False	False	2.745816831588741	2.981580972671509	1.0	46.0	1619012121.466	False		False			
1	ses-002	48	images_fmri/hamburger/hamburger_02s.jpg	seen	3578	299	2	None	741.0	10620.0	2.0	seen-between-within	3	2	213.09	2.98	True	False	213.07401990890503	216.0581979751587	[['x', 214.3948528766632]]	2.0	seen	False	True	1.3048528766632046	2.984178066253662	1.0	47.0	1619012125.9313	False		False	0.0	71.51230001449585	16.0
1	ses-002	49	images_fmri/raccoon/raccoon_02s.jpg	seen	6062	506	2	None	1267.0	18052.0	2.0	seen-within-between	3	2	217.56	2.98	False	True	217.5418028831482	220.52273392677307	[['a', 220.32526993751526]]	1.0	seen	False	False	2.7652699375152565	2.980931043624878	1.0	48.0	1619012130.3991	False		False	7.0	0.0	176.0
1	ses-002	50	images_fmri/raft/raft_02s.jpg	seen	6110	510	2	None	1276.0	18173.0	2.0	seen-within-between	3	2	222.03	2.98	False	True	222.0222179889679	225.00620293617249	[['x', 224.86738204956055]]	-1.0	unseen	True	False	2.8373820495605457	2.98398494720459	1.0	49.0	1619012134.8795	False		False	7.0	0.0	164.0
1	ses-002	51	images_fmri/odometer/odometer_02s.jpg	seen	5138	429	2	None	1072.0	15237.0	2.0	seen-between-within	3	2	226.5	2.98	False	True	226.48927402496332	229.47525906562805	[['b', 227.67810702323914]]	2.0	seen	False	True	1.1781070232391355	2.985985040664673	1.0	50.0	1619012139.3466	False		False	0.0	125.16280007362366	28.0
1	ses-002	52	images_fmri/pocketknife/pocketknife_02s.jpg	seen	5762	481	2	None	1208.0	17164.0	2.0	seen-within	2	2	230.97	2.98	False	False	230.9611599445343	233.942195892334	[['x', 232.3219690322876]]	2.0	seen	False	True	1.3519690322875988	2.9810359477996826	1.0	51.0	1619012143.8185	False		False	0.0	568.1877000331879	103.0
1	ses-002	53	images_fmri/crutch/crutch_02s.jpg	seen	2246	188	2	None	453.0	6544.0	2.0	seen-between	2	2	235.44	2.98	True	True	235.4283230304718	238.4099440574646	[['y', 237.54511404037476]]	1.0	seen	False	False	2.105114040374758	2.981621026992798	1.0	52.0	1619012148.2856	False		False	7.0	0.0	254.0
1	ses-002	54	images_fmri/game/game_02s.jpg	seen	3146	263	2	None	655.0	9408.0	2.0	seen-within	2	2	239.91	2.98	False	True	239.89483284950256	242.8761420249939	[['b', 241.15549898147583]]	2.0	seen	False	True	1.2454989814758337	2.981309175491333	1.0	53.0	1619012152.7521	False		False	0.0	160.91849994659424	36.0
1	ses-002	55	images_fmri/tiara/tiara_02s.jpg	seen	7694	642	2	None	1656.0	23379.0	2.0	seen-between	2	2	244.38	2.98	True	False	244.37571501731875	247.34287786483765	[['b', 246.77026391029358]]	-1.0	unseen	True	False	2.390263910293584	2.967162847518921	1.0	54.0	1619012157.233	False		False	7.0	0.0	151.0
1	ses-002	56	images_fmri/tongs/tongs_02s.jpg	seen	7802	651	2	None	1675.0	23643.0	2.0	seen-within	2	2	248.85	2.98	True	True	248.83933186531067	251.8223259449005	[['b', 250.11923384666443]]	2.0	seen	False	True	1.2692338466644344	2.982994079589844	1.0	55.0	1619012161.6966	False		False	0.0	49.16599988937378	11.0
1	ses-002	57	images_fmri/scallion/scallion_02s.jpg	unseen	6470	540	2	None	1373.0	19500.0	2.0	unseen-between	1	2	253.32	2.98	True	False	253.30766201019287	256.2885580062866	[['b', 256.0601558685303]]	-1.0	unseen	False	False	2.7401558685302803	2.98089599609375	1.0	56.0	1619012166.165	False		False			
1	ses-002	58	images_fmri/cashew/cashew_02s.jpg	unseen	1454	122	2	None	282.0	4124.0	2.0	unseen-within	1	2	257.79	2.98	True	True	257.7718188762665	260.7564868927002	[['x', 259.97215604782104]]	-1.0	unseen	False	False	2.1821560478210245	2.984668016433716	1.0	57.0	1619012170.6291	False		False			
1	ses-002	59	images_fmri/phone/phone_02s.jpg	seen	5522	461	2	None	1162.0	16533.0	2.0	seen-between	2	2	262.26	2.98	False	False	262.2396309375763	265.2235629558563	[['b', 264.3680930137634]]	-1.0	unseen	True	False	2.108093013763437	2.9839320182800293	1.0	58.0	1619012175.0969	False		False	7.0	0.0	129.0
1	ses-002	60	images_fmri/cow/cow_02s.jpg	seen	2102	176	2	None	427.0	6151.0	2.0	seen-within	2	2	266.73	2.98	True	True	266.7226209640503	269.6904318332672	[['b', 267.93279099464417]]	2.0	seen	False	True	1.2027909946441468	2.967810869216919	1.0	59.0	1619012179.5799	False		False	0.0	80.45970010757446	18.0
1	ses-002	1	images_fmri/bagel/bagel_02n.jpg	seen	302	26	2	None	56.0	813.0	2.0	seen-between	2	3	3.0	2.98	True	True	2.98499083518982	5.968835830688477	[['x', 5.746711015701294]]	-1.0	unseen	True	False	2.746711015701294	2.983844995498657	1.0	0.0	1619012313.5791	False		False	7.0	0.0	222.0
1	ses-002	2	images_fmri/dashboard/dashboard_02s.jpg	seen	2342	196	2	None	476.0	6885.0	2.0	seen-within-between	3	3	7.47	2.98	True	True	7.465663909912109	10.435032844543455	[['x', 9.69695782661438]]	-1.0	unseen	True	False	2.22695782661438	2.969368934631348	1.0	1.0	1619012318.0597	False		False	7.0	0.0	196.0
1	ses-002	3	images_fmri/fig/fig_02s.jpg	unseen	2906	243	2	None	582.0	8420.0	2.0	unseen-within	1	3	11.94	2.98	False	True	11.93676495552063	14.915274858474731	[['x', 14.648536920547485]]	-1.0	unseen	False	False	2.708536920547486	2.9785099029541016	1.0	2.0	1619012322.5308	False		False			
1	ses-002	4	images_fmri/peanut/peanut_02n.jpg	unseen	5414	452	2	None	1132.0	16115.0	2.0	unseen-within	1	3	16.41	2.98	True	False	16.400923013687134	19.38433694839477	[['b', 19.034098863601685]]	-1.0	unseen	False	False	2.6240988636016844	2.9834139347076416	1.0	3.0	1619012326.995	False		False			
1	ses-002	5	images_fmri/locker/locker_02s.jpg	seen	4502	376	2	None	942.0	13443.0	2.0	seen-between-within	3	3	20.88	2.98	False	True	20.868558883666992	23.848354816436768	[['b', 22.130791902542114]]	2.0	seen	False	True	1.2507919025421153	2.9797959327697754	1.0	4.0	1619012331.4626	False		False	0.0	621.7360999584198	86.0
1	ses-002	6	images_fmri/icicle/icicle_02s.jpg	unseen	3914	327	2	None	825.0	11791.0	2.0	unseen-between	1	3	25.35	2.98	True	False	25.33662390708924	28.31663393974304	[['b', 28.17159080505371]]	-1.0	unseen	False	False	2.821590805053709	2.9800100326538086	1.0	5.0	1619012335.9307	False		False			
1	ses-002	7	images_fmri/bow2/bow2_02s.jpg	unseen	878	74	2	None	176.0	2679.0	2.0	unseen-within	1	3	29.82	2.98	True	False	29.81482982635498	32.78622102737427	[['a', 31.788596868515015]]	-2.0	unseen	False	True	1.9685968685150144	2.971391201019287	1.0	6.0	1619012340.4089	False		False			
1	ses-002	8	images_fmri/spareribs/spareribs_02s.jpg	seen	7022	586	2	None	1506.0	21298.0	2.0	seen-within	2	3	34.29	2.98	True	True	34.28142595291138	37.26477599143982	[['b', 35.62912392616272]]	2.0	seen	False	True	1.3391239261627206	2.9833500385284424	1.0	7.0	1619012344.8755	False		False	0.0	666.4296000003815	96.0
1	ses-002	9	images_fmri/pigeon/pigeon_02s.jpg	unseen	5582	466	2	None	1172.0	16674.0	2.0	unseen-within	1	3	38.76	2.98	False	False	38.748713970184326	41.73018002510071	[['b', 40.74507188796997]]	-1.0	unseen	False	False	1.9850718879699727	2.981466054916382	1.0	8.0	1619012349.3428	False		False			
1	ses-002	10	images_fmri/porcupine/porcupine_02s.jpg	seen	5846	488	2	None	1227.0	17454.0	2.0	seen-within-between	3	3	43.23	2.98	True	True	43.21533203125	46.19919991493225	[['x', 46.21952795982361]]	-1.0	unseen	True	False	2.9895279598236115	2.983867883682251	1.0	9.0	1619012353.8094	False		False	7.0	0.0	145.0
1	ses-002	11	images_fmri/bow2/bow2_02s.jpg	seen	878	74	2	None	176.0	2679.0	2.0	seen-within	2	3	47.7	2.98	True	False	47.681171894073486	50.665194034576416	[['x', 49.01360583305359]]	2.0	seen	False	True	1.313605833053586	2.9840221405029297	1.0	10.0	1619012358.2753	False		False	0.0	17.866400003433228	4.0
1	ses-002	12	images_fmri/clock/clock_02n.jpg	seen	1814	152	2	None	360.0	5203.0	2.0	seen-within-between	3	3	52.17	2.98	True	False	52.1647379398346	55.13267183303833	[['y', 54.32217884063721]]	1.0	seen	False	False	2.1521788406372053	2.967933893203736	1.0	11.0	1619012362.7588	False		False	7.0	0.0	152.0
1	ses-002	13	images_fmri/confetti/confetti_02s.jpg	unseen	1982	166	2	None	397.0	5707.0	2.0	unseen-between	1	3	56.64	2.98	True	True	56.630971908569336	59.61447095870972	[['x', 59.43529200553894]]	-1.0	unseen	False	False	2.79529200553894	2.983499050140381	1.0	12.0	1619012367.2251	False		False			
1	ses-002	14	images_fmri/aircraft_carrier/aircraft_carrier_02s.jpg	unseen	26	3	2	None	10.0	128.0	2.0	unseen-between	1	3	61.11	2.98	True	False	61.09861898422241	64.08107399940491	[['b', 63.49907994270325]]	-1.0	unseen	False	False	2.389079942703248	2.982455015182495	1.0	13.0	1619012371.6927	False		False			
1	ses-002	15	images_fmri/thermometer/thermometer_02s.jpg	seen	7634	637	2	None	1647.0	23254.0	2.0	seen-between	2	3	65.58	2.98	True	False	65.565673828125	68.5485098361969	[['b', 68.13469886779785]]	-1.0	unseen	True	False	2.5546988677978533	2.9828360080718994	1.0	14.0	1619012376.1598	False		False	7.0	0.0	141.0
1	ses-002	16	images_fmri/dresser/dresser_02s.jpg	unseen	2606	218	2	None	520.0	7541.0	2.0	unseen-between	1	3	70.05	2.98	False	True	70.04731893539429	73.01461386680603	[['x', 72.71938395500183]]	-1.0	unseen	False	False	2.669383955001834	2.967294931411743	1.0	15.0	1619012380.6414	False		False			
1	ses-002	17	images_fmri/spider/spider_02s.jpg	unseen	7058	589	2	None	1514.0	21406.0	2.0	unseen-between	1	3	74.52	2.98	False	False	74.51377487182617	77.49712991714478	[['b', 76.84261798858643]]	-1.0	unseen	False	False	2.3226179885864298	2.9833550453186035	1.0	16.0	1619012385.1079	False		False			
1	ses-002	18	images_fmri/trashcan/trashcan_02s.jpg	seen	7946	663	2	None	1705.0	24047.0	2.0	seen-between	2	3	78.99	2.98	False	False	78.98607587814331	81.9635398387909	[['b', 80.83530688285828]]	-1.0	unseen	True	False	1.8453068828582813	2.977463960647583	1.0	17.0	1619012389.5802	False		False	7.0	0.0	228.0
1	ses-002	19	images_fmri/trashcan/trashcan_02s.jpg	seen	7946	663	2	None	1705.0	24047.0	2.0	seen-between-within	3	3	83.46	2.98	False	True	83.44814586639404	86.42904686927795	[['b', 84.67771697044373]]	2.0	seen	False	True	1.2177169704437318	2.980901002883911	1.0	18.0	1619012394.0422	False		False	0.0	4.462000131607056	1.0
1	ses-002	20	images_fmri/pigeon/pigeon_02s.jpg	seen	5582	466	2	None	1172.0	16674.0	2.0	seen-within	2	3	87.92999999999998	2.98	True	False	87.91350293159485	90.89797496795654	[['x', 89.33042287826538]]	2.0	seen	False	True	1.4004228782654025	2.9844720363616943	1.0	19.0	1619012398.5076	False		False	0.0	49.16480016708374	11.0
1	ses-002	21	images_fmri/motorcycle/motorcycle_02s.jpg	seen	4922	411	2	None	1026.0	14618.0	2.0	seen-between	2	3	92.4	2.98	True	False	92.39768099784852	95.36361503601074	[['b', 95.14269185066223]]	-1.0	unseen	True	False	2.7426918506622258	2.9659340381622314	1.0	20.0	1619012402.9918	False		False	7.0	0.0	210.0
1	ses-002	22	images_fmri/bagel/bagel_02n.jpg	seen	302	26	2	None	56.0	813.0	2.0	seen-between-within	3	3	96.87	2.98	True	True	96.8635549545288	99.84677696228027	[['b', 98.16338896751404]]	2.0	seen	False	True	1.2933889675140335	2.983222007751465	1.0	21.0	1619012407.4576	False		False	0.0	93.8785002231598	21.0
1	ses-002	23	images_fmri/gel/gel_02s.jpg	seen	3230	270	2	None	670.0	9598.0	2.0	seen-between	2	3	101.34	2.98	False	True	101.3298568725586	104.31209301948547	[['b', 103.34213399887085]]	2.0	seen	False	True	2.002133998870846	2.98223614692688	1.0	22.0	1619012411.9239	False		False	7.0	0.0	184.0
1	ses-002	24	images_fmri/horseshoe/horseshoe_02s.jpg	seen	3830	320	2	None	800.0	11439.0	2.0	seen-within-between	3	3	105.81	2.98	True	True	105.7964448928833	108.77853989601137	[['x', 108.68069386482239]]	-1.0	unseen	True	False	2.8706938648223854	2.982095003128052	1.0	23.0	1619012416.3905	False		False	7.0	0.0	272.0
1	ses-002	25	images_fmri/meat_grinder/meat_grinder_02s.jpg	seen	4718	394	2	None	989.0	14085.0	2.0	seen-between	2	3	110.28	2.98	False	False	110.26293992996216	113.24882888793944	[['x', 112.22654891014099]]	2.0	seen	False	True	1.94654891014099	2.985888957977295	1.0	24.0	1619012420.857	False		False	7.0	0.0	173.0
1	ses-002	26	images_fmri/crutch/crutch_02s.jpg	seen	2246	188	2	None	453.0	6544.0	2.0	seen-between-within	3	3	114.75	2.98	False	True	114.74898982048036	117.717346906662	[['b', 115.77923583984375]]	2.0	seen	False	True	1.02923583984375	2.9683570861816406	1.0	25.0	1619012425.3431	False		False	0.0	277.05750012397766	33.0
1	ses-002	27	images_fmri/kettle/kettle_02s.jpg	seen	4106	343	2	None	869.0	12427.0	2.0	seen-within	2	3	119.22	2.98	False	True	119.21563386917114	122.19812297821044	[['b', 120.3822968006134]]	2.0	seen	False	True	1.1622968006134045	2.982489109039306	1.0	26.0	1619012429.8097	False		False	0.0	420.09249997138977	65.0
1	ses-002	28	images_fmri/limousine/limousine_02s.jpg	unseen	4406	368	2	None	932.0	13306.0	2.0	unseen-within	1	3	123.69	2.98	False	True	123.68386483192444	126.66269993782043	[['x', 125.22835397720337]]	-1.0	unseen	False	False	1.5383539772033714	2.978835105895996	1.0	27.0	1619012434.2779	False		False			
1	ses-002	29	images_fmri/raspberry/raspberry_02n.jpg	unseen	6134	512	2	None	1285.0	18290.0	2.0	unseen-between	1	3	128.16	2.98	True	True	128.1489758491516	131.12921404838562	[['x', 130.40397000312805]]	-1.0	unseen	False	False	2.243970003128055	2.980238199234009	1.0	28.0	1619012438.7431	False		False			
1	ses-002	30	images_fmri/pickle/pickle_02s.jpg	seen	5546	463	2	None	1168.0	16612.0	2.0	seen-between	2	3	132.63	2.98	False	True	132.6166009902954	135.59866094589233	[['a', 134.3857238292694]]	1.0	seen	False	False	1.7557238292694135	2.982059955596924	1.0	29.0	1619012443.2107	False		False	7.0	0.0	158.0
1	ses-002	31	images_fmri/thermometer/thermometer_02s.jpg	seen	7634	637	2	None	1647.0	23254.0	2.0	seen-between-within	3	3	137.1	2.98	False	False	137.0963430404663	140.06297302246094	[['x', 138.38779592514038]]	2.0	seen	False	True	1.2877959251403863	2.966629981994629	1.0	30.0	1619012447.6904	False		False	0.0	71.53059983253479	16.0
1	ses-002	32	images_fmri/coffee_pot/coffee_pot_02s.jpg	seen	1886	158	2	None	381.0	5485.0	2.0	seen-within-between	3	3	141.57	2.98	True	True	141.56358003616333	144.54438281059265	[['y', 143.62112593650818]]	1.0	seen	False	False	2.051125936508185	2.9808027744293213	1.0	31.0	1619012452.1577	False		False	7.0	0.0	317.0
1	ses-002	33	images_fmri/jam/jam_02s.jpg	unseen	3974	332	2	None	840.0	12006.0	2.0	unseen-between	1	3	146.04	2.98	False	True	146.02813696861267	149.01100897789	[['x', 148.9207739830017]]	-1.0	unseen	False	False	2.880773983001717	2.982872009277344	1.0	32.0	1619012456.6222	False		False			
1	ses-002	34	images_fmri/undershirt/undershirt_02s.jpg	seen	8126	678	2	None	1745.0	24594.0	2.0	seen-between	2	3	150.51	2.98	False	True	150.49666500091553	153.47754001617432	[['x', 153.34634494781494]]	-1.0	unseen	True	False	2.8363449478149505	2.980875015258789	1.0	33.0	1619012461.0907	False		False	7.0	0.0	196.0
1	ses-002	35	images_fmri/spinach/spinach_02s.jpg	unseen	7070	590	2	None	1516.0	21433.0	2.0	unseen-between	1	3	154.98	2.98	False	False	154.96129393577576	157.9459810256958	[['b', 157.40916299819946]]	-1.0	unseen	False	False	2.429162998199473	2.984687089920044	1.0	34.0	1619012465.5554	False		False			
1	ses-002	36	images_fmri/beet/beet_02s.jpg	seen	554	47	2	None	115.0	1752.0	2.0	seen-within-between	3	3	159.45	2.98	False	False	159.44873690605164	162.4163248538971	[['x', 160.75686383247375]]	2.0	seen	False	True	1.3068638324737665	2.967587947845459	1.0	35.0	1619012470.0428	False		False	7.0	0.0	168.0
1	ses-002	37	images_fmri/shredder/shredder_02s.jpg	unseen	6734	562	2	None	1438.0	20388.0	2.0	unseen-within	1	3	163.92	2.98	False	True	163.91520881652832	166.89517784118652	[['x', 165.5383539199829]]	-1.0	unseen	False	False	1.6183539199829229	2.979969024658203	1.0	36.0	1619012474.5093	False		False			
1	ses-002	38	images_fmri/dog/dog_02s.jpg	unseen	2450	205	2	None	496.0	7165.0	2.0	unseen-within	1	3	168.39	2.98	True	True	168.38237285614014	171.36143684387207	[['x', 171.19613981246948]]	-1.0	unseen	False	False	2.806139812469496	2.9790639877319336	1.0	37.0	1619012478.9765	False		False			
