subject	session	hit	miss	false_alarm	correct_rej	old	new	rate_hit_minus_FA	dprime	rt_hit	rt_miss	rt_FA	rt_CR	diff_rt_hit_minus_FA	hit_within	hit_between	hit_within_between	hit_between_within	miss_within	miss_between	miss_within_between	miss_between_within	old_within	old_between	old_within_between	old_between_within	rate_Hwith_min_FA	rate_Hbetw_min_FA	rate_Hwith_betw_min_FA	rate_Hbetw_with_min_FA	rt_hit_within	rt_hit_between	rt_hit_within_between	rt_hit_between_within	diff_rt_Hwith_min_Hbetw	rt_miss_within	rt_miss_between	rt_miss_within_between	rt_miss_between_within	hit_loConf	hit_hiConf	miss_loConf	miss_hiConf	FA_loConf	FA_hiConf	CR_loConf	CR_hiConf	dprime_hiConf	rt_hit_loConf	rt_hit_hiConf	rt_miss_loConf	rt_miss_hiConf	diff_rt_hitHC_minus_hitLC	rt_FA_loConf	rt_FA_hiConf	rt_CR_loConf	rt_CR_hiConf	hit_within_loConf	hit_between_loConf	hit_within_hiConf	hit_between_hiConf	hit_within_between_loConf	hit_between_within_loConf	hit_within_between_hiConf	hit_between_within_hiConf	miss_within_loConf	miss_between_loConf	miss_within_hiConf	miss_between_hiConf	miss_within_between_loConf	miss_between_within_loConf	miss_within_between_hiConf	miss_between_within_hiConf	rt_hit_within_loConf	rt_hit_between_loConf	rt_hit_within_hiConf	rt_hit_between_hiConf	rt_hit_within_between_loConf	rt_hit_between_within_loConf	rt_hit_within_between_hiConf	rt_hit_between_within_hiConf	rt_miss_within_loConf	rt_miss_between_loConf	rt_miss_within_hiConf	rt_miss_between_hiConf	rt_miss_within_between_loConf	rt_miss_between_within_loConf	rt_miss_within_between_hiConf	rt_miss_between_within_hiConf
sub-01	ses-001	57	3	0	111	60	111	0.95	4.256565709228687	1.2062436659294304	1.7087779299418127		1.6292916170756022		57	0	0	0	3	0	0	0	60	0	0	0	0.95				1.2062436659294304					1.7087779299418127				0	57	0	3	0	0	2	109	4.256565709228687		1.2062436659294304		1.7087779299418127				2.959205446243285	1.6048895284670208	0	0	57	0	0	0	0	0	0	0	3	0	0	0	0	0			1.2062436659294304								1.7087779299418127					
sub-01	ses-002	176	62	4	114	238	118	0.705597493234582	2.4681480535693434	1.6609710176966426	2.5735198125531604	3.08622397899628	2.3789000312905566	-1.4252529612996374	59	20	37	60	1	40	21	0	60	60	58	60	0.9494350282485875	0.29943502824858753	0.6040327293980129	0.9661016949152542	1.4468232869293738	2.371016497612001	2.1591294572160065	1.3276700886090633	-0.9241932106826272	3.843635940551764	2.4018931653499607	2.839945991606941		42	134	54	8	4	0	90	24	2.7911968698774925	2.4199701863243477	1.423075755887959	2.5876147528047926	2.4783789658546445	-0.9968944304363887	3.08622397899628		2.41675355497996	2.2369493174552937	3	12	56	8	24	3	13	57	1	33	0	7	20	0	1	0	2.9517284965515196	2.507392912705741	1.36620336498533	2.1664518749713912	2.4032696481545766	1.6721252759297727	1.7084091047140306	1.3095408682237628	3.843635940551764	2.3982182664582226		2.419217688696724	2.837317895889284		2.892507905960088	
sub-01	ses-003	143	59	6	97	202	103	0.6496683648947419	2.1169350789817587	1.5613260281836245	2.5421770208973022	3.043004151980077	2.392982294731535	-1.4816781237964523	49	15	26	53	3	33	22	1	52	48	48	54	0.8840552651232263	0.254247572815534	0.48341423948220064	0.9232290542970155	1.3774390697479268	2.2113379084269207	2.1389737921494705	1.2639947243456573	-0.8338988386789938	2.2823386255900053	2.5677138106028257	2.572265623699539	1.8170288848876908	30	113	54	5	5	1	69	28	2.4868809325627055	2.365225479443866	1.3479013951056842	2.582822804274385	2.1032025604248044	-1.0173240843381819	2.881140188217161	3.852323970794657	2.492105247110562	2.1487150192260764	2	10	47	5	16	2	10	51	3	30	0	3	20	1	2	0	2.472325940132123	2.400975039482117	1.3308481390932803	1.8320636463165285	2.3777893841266624	1.9788659811019862	1.7568688449859635	1.2359605574140369	2.2823386255900053	2.6032878618240374		2.2119732983907068	2.635487540721898	1.8170288848876908	1.9400464534759507	
sub-01	ses-004	163	69	5	112	232	117	0.659851164161509	2.251646270544675	1.793039164572407	2.4411646150506074	2.811892656326299	2.41849569780486	-1.0188534917538918	54	26	28	55	6	32	30	1	60	58	58	56	0.8572649572649573	0.4055408193339228	0.44002357795461244	0.9394078144078144	1.6207046507023017	2.5703574895858785	2.2457585695811657	1.3643054183613206	-0.9496528388835768	2.2273238722483337	2.497397014498713	2.4244254872004194	2.426946125030497	43	120	65	4	4	1	104	8	2.427910462102753	2.522791325325188	1.5315446403026607	2.4337441569108242	2.5617470598220846	-0.9912466850225272	3.0212000679969826	1.974663009643564	2.4035937046087708	2.6122216093540205	4	20	50	6	18	1	10	54	5	29	1	3	30	1	0	0	2.6745577883720344	2.642244724273682	1.536396399688723	2.330733373959866	2.3639894061618345	2.3850920391082866	2.032943063735962	1.3454019624215618	2.3010764217376733	2.4664923223955904	1.858561124801636	2.7961423714955678	2.4244254872004194	2.426946125030497		
sub-01	ses-005	142	95	7	111	237	118	0.5398340842451549	1.8116536903290155	1.711519035957231	2.459090178138332	3.0185057149614622	2.367860366804107	-1.3069866790042313	53	14	21	54	7	46	38	4	60	60	59	58	0.8240112994350283	0.17401129943502824	0.2966101694915254	0.8717124488603156	1.36629111056058	2.693583810670039	2.55383884974889	1.4681756491131261	-1.327292700109459	2.4158010074070586	2.4779785467230764	2.4838195702904153	2.082700762748715	39	103	91	4	6	1	95	16	2.223132013442792	2.6570271000495387	1.353511128194124	2.454133713900389	2.571849739551538	-1.3035159718554148	3.0083944972356167	3.079173021316535	2.350449672297428	2.471236365437512	2	14	51	0	18	5	3	49	6	44	1	2	37	4	1	0	1.8667274379730259	2.693583810670039	1.3466661565444056		2.635394473605693	2.948665630340588	2.0645051066080717	1.3171052428654257	2.497477332750966	2.4680362530188136	1.9257430553436168	2.696709008216856	2.4707271833677553	2.082700762748715	2.968237886428824	
sub-01	ses-006	118	103	9	98	221	107	0.4498245020510001	1.4631013768457424	1.9982390729451593	2.641102582413017	2.858302935494318	2.5999587072644927	-0.8600638625491588	44	11	18	45	10	45	39	9	54	56	57	54	0.7307026652821045	0.11231642189586115	0.23167732415150022	0.7492211838006231	2.0123219956051206	2.119125426899305	2.4361273230446705	1.7797638064490457	-0.10680343129418457	2.7701813745498662	2.4936409089830196	2.7613042569771804	2.7141161462995744	54	64	97	6	8	1	92	6	1.7970505724687411	2.501029674212139	1.5740095031261454	2.631081359902609	2.8031123463312753	-0.9270201710859935	3.1980481946468364	0.1403408622741722	2.603276932343194	2.5490792560577376	16	9	28	2	17	12	1	33	9	43	1	2	37	8	2	1	2.7210989063978195	2.256607734892107	1.607306618009293	1.5004550409316977	2.4577899259679454	2.452176795800529	2.067863073348999	1.5352499921394154	2.742824851142036	2.5463282066167796	3.016390085220337	1.3608640098571811	2.7155685664512035	2.570164800882342	3.607414531707761	3.865726909637431
sub-01	ses-007	92	129	8	103	221	111	0.34421752068810896	1.249136345431588	1.7838345495514236	2.393997055319854	2.3285593998432175	2.3939753407413553	-0.5447248502917938	45	1	4	42	10	56	48	15	55	57	52	57	0.7461097461097461	-0.054528212422949265	0.004851004851004856	0.6647700331910857	1.8233417095608166	1.9402170181274407	2.1119862771034263	1.7065295119512638	-0.11687530856662409	2.573457655906677	2.398710591622764	2.3446973947683984	2.414518366495768	23	69	127	2	3	5	100	3	1.2053472789170967	2.6412765171216854	1.4980205603613366	2.398761788015292	2.0914365291595476	-1.1432559567603489	3.068027388254805	1.8848786067962648	2.3685036107063326	3.2430330085754426	13	0	32	1	2	8	2	34	10	55	0	1	47	15	1	0	2.571740965476398		1.5193045118451118	1.9402170181274407	2.6162580680847185	2.760526400804519	1.6077144861221342	1.4585302439857923	2.573457655906677	2.4105539103421325		1.7473280620574982	2.3427644670770538	2.414518366495768	2.435544996261597	
sub-01	ses-008	114	101	7	96	215	103	0.4622713930909912	1.5670036556351086	1.8121376457548977	2.5937733669092173	2.7581450026375927	2.3848258780439724	-0.946007356882695	44	8	13	49	11	45	38	7	55	53	51	56	0.7320388349514564	0.0829822311778714	0.18694079573577002	0.8070388349514563	1.6746458907560864	2.4426713573932606	2.1160136450254026	1.752035187312535	-0.7680254666371742	2.565821697928693	2.565952154371475	2.676648382387665	2.366655129023961	42	72	98	3	5	2	91	5	1.6394642613355557	2.4895771405810407	1.4169646071063142	2.590104828270116	2.713612295786549	-1.0726125334747265	3.0035377979278564	2.1446630144119325	2.3842200377747282	2.3958521709442153	13	6	31	2	10	13	3	36	11	44	0	1	36	7	2	0	2.350884574743418	2.817509304682408	1.3910619265033344	1.3181575155258183	2.4949605150222802	2.4727753426478483	0.852857411702478	1.491767908997005	2.565821697928693	2.568283094492827		2.463390789031984	2.6676442342334337	2.366655129023961	2.838723049163832	
sub-01	ses-009	111	111	3	109	222	112	0.4732142857142857	1.930285856057582	1.8387803841496382	2.271295325906429	1.9570577557881694	2.1171580060031445	-0.11827737163853125	44	8	12	47	12	46	43	10	56	54	55	57	0.7589285714285714	0.12136243386243385	0.1913961038961039	0.7977756892230576	1.6136170521649442	2.799519001245501	2.315456439654032	1.7643370863731895	-1.185901949080557	2.1666915837923746	2.29862659122633	2.3193691459921917	2.064378569602969	34	77	110	1	1	2	106	3	1.7063180752088039	2.539091561261345	1.5295520721782352	2.2748629095771116	1.8788611221313545	-1.0095394890831098	3.5086420726776133	1.1812655973434476	2.121665994176326	1.9578757572174084	6	7	38	1	8	13	4	34	12	46	0	0	42	10	1	0	2.0951408465703296	3.044328720910211	1.5375869793640937	1.0858509635925344	2.4606625080108615	2.5202051456157983	2.0250443029403726	1.475328710780427	2.1666915837923746	2.29862659122633			2.3298574322745926	2.064378569602969	1.8788611221313545	
sub-01	ses-010	114	120	2	116	234	118	0.4702303346371143	2.0891375091266635	1.5774690691630056	2.195677394231162	3.1049659967422514	2.085232042526378	-1.5274969275792458	49	8	7	50	11	51	52	6	60	59	59	56	0.7997175141242938	0.11864406779661017	0.1016949152542373	0.8759079903147701	1.5506208114234776	2.5555023288726835	2.3535114397321437	1.3386491083145153	-1.0048815174492058	2.187165321870283	2.1977142592037455	2.1531147568042472	2.5628456989924095	31	83	114	6	2	0	113	3	2.2598934148818217	2.342740649869365	1.2916447438389438	2.1888402137421736	2.3255838235219364	-1.0510959060304212	3.1049659967422514		2.062115846988375	2.955942074457821	11	7	38	1	7	6	0	44	10	47	1	4	51	6	1	0	2.2629230195825714	2.6025642490387	1.3444280669563713	2.226068887710568	2.3535114397321437	2.17337951819102		1.2248222342404467	2.3863236513137807	2.159963498216997	0.1955820274353072	2.64128570079804	2.1327292008493473	2.5628456989924095	3.1927781105041504	
sub-01	ses-011	116	115	2	113	231	115	0.48477319781667605	2.116305848333378	1.719421973475097	2.1365780503646183	2.6356479501724195	1.9988606046153399	-0.9162259766973224	47	13	11	45	12	44	46	13	59	57	57	58	0.7792188651436993	0.21067887109077038	0.17559115179252477	0.7584707646176911	1.5381225740148703	2.4480252544696532	2.678795747756956	1.4637801424662298	-0.909902680454783	2.1423780147234575	2.257741882801057	2.004636765355649	2.188000428126407	50	66	114	1	1	1	109	4	1.8123801114328075	2.222982691383365	1.3379365811203487	2.1267823052824584	3.253292989730838	-0.885046110263016	2.5087889575958258	2.762506942749013	1.9997002506256123	1.9759802508354198	16	13	31	0	9	12	2	33	12	43	0	1	46	13	0	0	1.8956635659933148	2.4480252544696532	1.353585287832447		2.6620624785953075	2.086302241484328	2.754095458984374	1.2374084700960122	2.1423780147234575	2.2345895314771083		3.253292989730838	2.004636765355649	2.188000428126407		
sub-01	ses-012	95	133	9	99	228	108	0.33333333333333337	1.1725657328527133	1.9227509164308259	2.1137594981659644	2.9988955911000605	2.0994137474984846	-1.0761446746692347	34	4	10	47	23	53	48	9	57	57	58	56	0.513157894736842	-0.013157894736842105	0.08908045977011496	0.7559523809523809	1.55544590697569	3.043808300495147	2.885284914970396	1.8882573164270307	-1.4883623935194568	2.022196259291276	2.1718045279664833	2.0691337225834547	2.2439378473493834	32	63	127	6	7	2	98	1	1.4915341730383092	2.618812998235225	1.5691955732920833	2.086209983525315	2.69689089139303	-1.0496174249431416	2.8844436114175003	3.399477519989019	2.0894517643597674	3.0756880950927723	7	3	27	1	10	12	0	35	20	53	3	0	47	7	1	2	2.2085137462615934	3.076130396525064	1.3861320227163818	2.946842012405396	2.885284914970396	2.5217649483680744		1.6710546997615299	1.9645354337692271	2.1718045279664833	2.4066017627716008		2.0285250158512866	2.173091929299491	3.9777429389953616	2.4918985605240067
sub-01	ses-013	105	134	0	120	239	120	0.4393305439330544	2.4855905296606338	1.4550831342424688	1.6232850422788034		1.6098875357309983		53	2	2	48	7	57	58	12	60	59	60	60	0.8833333333333333	0.03389830508474576	0.03333333333333333	0.8	1.3639178679124402	3.094404044151303	2.386075997352602	1.4486483752727513	-1.7304861762388628	1.5654446220398006	1.497611999846343	1.7380257256277678	1.699392269452413	16	89	131	3	0	0	120	0	2.312713917249272	2.212861185073853	1.3188533722952533	1.6145173792802663	2.006139659881592	-0.8940078127785995			1.6098875357309983		5	2	48	0	1	8	1	40	7	56	0	1	56	12	2	0	2.1616430797576967	3.094404044151303	1.2808214916785594		2.949905147552492	1.9323562908172582	1.822246847152712	1.3519067921638501	1.5654446220398006	1.4914346585954956		1.8435431098937995	1.7255467181546351	1.699392269452413	2.0874379348754886	
sub-01	ses-014	90	115	6	87	205	93	0.3745082612116444	1.3644859607709443	2.04969866593679	2.30574236322486	3.2252282238006593	1.9160214508538975	-1.1755295578638694	28	5	10	36	22	43	28	17	50	48	38	53	0.495483870967742	0.03965053763440861	0.19864176570458403	0.6147291539866098	2.08882565191814	2.521916610717775	2.638458774566652	1.909012009567688	-0.4330909587996352	2.3860733196952126	2.340487724792128	2.0452548023632593	2.492402903051938	33	57	114	1	2	4	86	1	1.1281205525518083	2.6870975364338285	1.6806782672279785	2.297784961148313	3.212886199951185	-1.00641926920585	3.252633666992189	3.2115255022048945	1.9153017233693341	1.9779180145263664	10	4	18	1	9	8	1	28	22	42	0	1	28	17	0	0	2.548623372077942	2.7713605570793147	1.8333824740515834	1.5241408252716155	2.7358578565385625	2.7551513886451775	1.76186703681946	1.6672579012598336	2.3860733196952126	2.3197163325264363		3.212886199951185	2.0452548023632593	2.492402903051938		
sub-01	ses-015	52	131	7	89	183	96	0.21123633879781417	0.8838595070234813	1.7149659826205328	1.9963427357273262	2.331505532945907	1.9464637202359327	-0.6165395503253741	25	0	2	23	20	40	43	24	45	40	45	47	0.4826388888888889	-0.07291666666666667	-0.028472222222222225	0.4164450354609929	1.9599242954254146		1.0783489894866949	1.5333991220723036		1.9099646344184893	1.8055349285602589	2.142614446906158	2.0981353541215264	14	38	128	3	1	6	87	2	0.7195192100442956	2.5832984958376177	1.39505400406687	1.978619197830559	2.752547019322718	-1.1882444917707478	1.7654200935363633	2.425853106180831	1.970492348396916	0.9012183952331513	10	0	15	0	0	4	2	19	20	40	0	0	40	24	3	0	2.5414162921905494		1.572262964248658			2.688004004955289	1.0783489894866949	1.290324409886412	1.9099646344184893	1.8055349285602589			2.096869503974916	2.0981353541215264	2.752547019322718	
sub-01	ses-016	105	114	3	105	219	108	0.45167427701674273	1.8629769702649572	1.644861739385697	2.1041212281009627	2.2982929261525435	2.0361991706121545	-0.6534311867668465	44	5	7	49	12	52	44	6	56	57	51	55	0.7579365079365079	0.059941520467836254	0.10947712418300655	0.8631313131313131	1.436639246723868	2.2686449985504225	2.730739837374007	1.6130602433730172	-0.8320057518265545	2.074611620903015	2.1010828067706204	2.1717310849103075	1.6936678107579606	25	80	106	8	3	0	100	5	2.2579944192351125	2.599539925003055	1.3465248063802726	2.0656680965423604	2.6136252212524425	-1.2530151186227825	2.2982929261525435		2.038476320171357	1.9906561794281004	5	4	39	1	7	9	0	40	11	50	1	2	39	6	5	0	2.2916310176849293	2.8353195214271665	1.3270249171134756	0.0019469070434467	2.730739837374007	2.5637651210361136		1.3991516458988205	2.1019716028733697	2.089878496360781	1.7736518192291155	2.3811905670166027	2.081620485110162	1.6936678107579606	2.874593763351444	
sub-01	ses-017	48	96	6	62	144	68	0.24509803921568624	0.9209749406352035	2.314242073893547	2.0296501652399725	1.7971329371134448	1.9405322136417527	0.5171091367801022	20	5	7	16	19	32	27	18	39	37	34	34	0.4245852187028657	0.04689984101748808	0.1176470588235294	0.38235294117647056	2.1106566905975326	2.789956186294559	2.9975929737091116	2.121097124218939	-0.6792994956970264	2.224754186429478	1.8565756887197535	2.016835960105613	2.150616297721866	12	36	95	1	2	4	59	3	0.8902367211657171	2.7632428503036492	2.164575148423513	2.026573819210657	2.3219030380249137	-0.5986677018801361	2.9937749576568606	1.1988119268417365	1.970854074995398	1.3442022736867258	4	2	16	3	2	4	5	12	19	32	0	0	26	18	1	0	2.4148622632026573	3.225692038536078	2.0346052974462516	2.4994656181335464	3.2260584926605222	2.648991022109989	2.906206766128548	1.9451324915885888	2.224754186429478	1.8565756887197535			2.0051026109548706	2.150616297721866	2.3219030380249137	
sub-01	ses-018	112	126	2	118	238	120	0.453921568627451	2.054253960376711	1.3214600675270345	1.8363773703097503	2.3593812580007203	1.7699528817206074	-1.0379211904736858	56	1	0	55	4	59	58	5	60	60	58	60	0.9166666666666666	0.0	-0.016666666666666666	0.8999999999999999	1.3208281145360365	2.1721429960011847		1.3066365482365205	-0.8513148814651481	2.0432662365002225	1.896399915881595	1.7540174770002115	1.9179750020002586	6	106	111	15	2	0	109	9	2.5009099960611954	2.4562109713338853	1.2572288842926844	1.7495133804326917	2.4791708953999847	-1.198982087041201	2.3593812580007203		1.7261830384589862	2.3000543167780205	4	1	52	0	0	1	0	54	4	50	0	9	52	5	6	0	2.2937766175001455	2.1721429960011847	1.2459859220003358			3.390016362001546		1.2680554405742053	2.0432662365002225	1.798191524340305		2.4420020911109823	1.6639128664425256	1.9179750020002586	2.5349241018334894	
sub-01	ses-019	111	94	9	94	205	103	0.45408477385744733	1.4611965087436802	1.9844462079441325	2.1760614151992366	2.159418219340605	2.035349255024998	-0.17497201139647234	40	7	19	45	10	44	33	7	50	51	52	52	0.712621359223301	0.049876261184085294	0.2780059746079163	0.7780059746079164	1.9457247454473408	2.2142070029819005	2.522891451216451	1.7557811704426491	-0.2684822575345598	1.905731271097208	2.115449150450191	2.3128924958172243	2.2981779051399127	34	77	93	1	6	3	92	2	1.5767617334746218	2.868801342788537	1.593951732818032	2.1736087610831714	2.4041582479933368	-1.2748496099705051	1.8899050235049824	2.69844461101185	2.0236224182326694	2.574783747472111	9	5	31	2	14	6	5	39	10	43	0	1	33	7	0	0	2.6678924758866835	2.8623628059737394	1.7360631462875313	0.5938174955023037	2.9200566751456702	3.0559343149870037	1.4108288242146372	1.5557576097435175	1.905731271097208	2.108734985391048		2.4041582479933368	2.3128924958172243	2.2981779051399127		
sub-01	ses-020	108	111	6	105	219	111	0.43909663087745276	1.589585538618427	1.7419264555497205	2.1568116844243064	2.8486637200127967	1.9112167746862412	-1.1067372644630762	43	11	9	45	9	47	47	8	52	58	56	53	0.7728690228690228	0.13560111835973904	0.10666023166023167	0.7950025497195309	1.5961107892211146	2.553729427472518	2.6553112922357958	1.5001437317898225	-0.9576186382514034	1.7933410806806493	2.2535384105811245	1.9659738585213198	3.11861882464466	22	86	106	5	5	1	98	7	2.092943447699499	2.7281289335620715	1.4896421007093514	2.151238116084617	2.274971333225723	-1.23848683285272	3.051544352811297	1.834260556020297	1.8925514143977653	2.1725318187249054	5	9	38	2	6	2	3	43	7	44	2	3	47	8	0	0	2.488516642017282	2.7522820086852224	1.4786889664847767	1.6602428120153476	3.0279529483402983	2.3189987800351872	1.9100279800267899	1.4620574504760846	2.002000820865263	2.1969889229830284	1.0630319900345029	3.082930895353203	1.9659738585213198	3.11861882464466		
sub-01	ses-021	116	110	4	110	226	114	0.47818661698494025	1.8440565774784325	1.7238491256892345	1.9272235577097392	3.0317381102614993	1.812070910798365	-1.3078889845722648	48	6	13	49	8	50	45	7	56	56	58	56	0.8220551378446115	0.07205513784461152	0.18905021173623715	0.8399122807017544	1.5904398063100758	2.1867179831660675	2.360067034238732	1.629065480264646	-0.5962781768559917	1.5887030348691042	1.916519865480859	1.99272161315718	1.9695001718574878	35	81	104	6	2	2	106	4	1.7446247437775753	2.3115113098558857	1.469921021419694	1.9283637104423894	1.9074609103437996	-0.8415902884361917	3.4503792565257756	2.613096963997222	1.7957392624890842	2.244859590994306	11	6	37	0	11	7	2	42	7	48	1	2	43	6	2	1	2.3400989246334607	2.1867179831660675	1.3675681765382586		2.421314292009072	2.2010060804131064	2.0232071165018652	1.5337420469065695	1.6492795229952664	1.9005268522499463	1.1646676179859696	2.3003521830227704	1.99855598262977	1.9736121773273538	1.8672826694964968	1.9448281390382915
sub-01	ses-022	79	115	7	100	194	107	0.34179593409769726	1.2760822260977114	2.019673022811681	2.287298668812314	2.3406834207172573	2.1459887061296268	-0.3210103979055763	24	6	11	38	27	40	38	10	51	46	49	48	0.4051676745464541	0.0650142218610321	0.15906923517070382	0.7262461059190031	2.0597415492537183	1.999791807018143	2.6862704330001197	1.8045433161821947	0.059949742235575254	2.3014107089743217	2.2230726841266755	2.3912369466571786	2.1111346433069587	27	52	112	3	4	3	99	1	1.2917062730435869	2.525087550963468	1.7572462485790226	2.269258627369128	2.960793549357909	-0.7678413023844453	2.8710053417424284	1.6335875260170287	2.1391624645554144	2.821786621976642	5	4	19	2	9	9	2	29	27	38	0	2	37	10	1	0	2.5204063808056585	2.3157817775255536	1.9385139620032075	1.367811866003322	2.723736325888895	2.4220642143203412	2.5176739150006284	1.612898899518632	2.3014107089743217	2.2084366240538067		2.501157825511182	2.350998350700579	2.1111346433069587	3.880064997051363	
sub-01	ses-023	59	134	1	94	193	95	0.2951731660758113	1.798961716598293	1.7501445712129406	1.9581596753301485	1.4101348870946104	2.053526139094872	0.3400096841183302	27	3	5	24	18	45	47	24	45	48	52	48	0.5894736842105263	0.05197368421052632	0.08562753036437247	0.48947368421052634	1.6147733955261208	3.298346028655459	1.6809367532357598	1.7233302570922113	-1.6835726331293381	1.7739568815209594	2.07176564133654	1.84995269098785	2.095205928762057	15	44	126	8	0	1	90	4	1.5615211195443317	2.3198217890743806	1.5559364287601773	1.970607219563969	1.7621108536474726	-0.7638853603142033		1.4101348870946104	2.0639172660536143	1.8197257825231645	7	2	20	1	3	3	2	21	15	43	3	2	45	23	2	1	1.8216938191392924	3.297583737999666	1.5423512472615108	3.2998706099670443	2.5604599677041784	2.5896409076762645	0.36165193153313163	1.599571592723061	1.9711151380166418	2.030618096374541	0.7881655990425477	2.9564378580195125	1.8902242766760515	2.0153526956644736	0.9438420130033194	3.9318302900064737
sub-01	ses-024	109	131	1	119	240	120	0.4458333333333333	2.2788387627791096	1.2401386458898844	1.6017425188474208	1.5690821489990014	1.5520910921092703	-0.328943503109117	52	1	0	56	8	59	60	4	60	60	60	60	0.8583333333333334	0.008333333333333333	-0.008333333333333333	0.925	1.258468656096105	1.3793875930002883		1.2206313337857086	-0.12091893690418343	1.5864767763750312	1.5441030870679073	1.6466910880500858	1.80822708450005	6	103	117	14	0	1	114	5	2.215483635596301	1.8021926320000663	1.2073976369902624	1.5607922034872987	1.943970154357012	-0.5947949950098039		1.5690821489990014	1.5236084585526315	2.2014951372006366	3	0	49	1	0	3	0	53	8	51	0	8	54	4	6	0	1.7197141313336022		1.2302291372040133	1.3793875930002883		1.8846711326665304		1.1830441753584924	1.5864767763750312	1.4619504889217199		2.0678259002498525	1.6320090800741813	1.80822708450005	1.7788291598332242	
sub-01	ses-025	117	107	9	110	224	119	0.44669117647058826	1.4910740786724999	1.5495991781692249	1.7658882151235564	1.987989205771336	1.5719080766778963	-0.4383900276021111	48	7	14	48	8	50	42	7	56	57	56	55	0.7815126050420168	0.04717676544301931	0.17436974789915966	0.7970970206264324	1.367098074043362	2.110265009419859	2.1789452946229333	1.4667772312720384	-0.7431669353764971	1.729747564604037	1.7319094473905892	1.6916736221955446	2.4951848570922706	27	90	107	0	6	3	110	0	1.707654335007042	2.173055475937135	1.3625622888388518	1.7658882151235564		-0.8104931870982834	2.067018911320098	1.8299297946738118	1.5719080766778963		4	4	44	3	11	8	3	40	8	50	0	0	42	7	0	0	2.6048405432037565	1.811766767720693	1.254576031392417	2.5082626650187474	2.1649152654451784	2.1490000858384857	2.2303887349413665	1.3303326603587489	1.729747564604037	1.7319094473905892			1.6916736221955446	2.4951848570922706		
sub-01	ses-026	115	125	2	118	240	120	0.4625	2.0758000538090435	1.2900014365094568	1.4168872100524803	2.0144020145066364	1.419778426478912	-0.7244005779971796	51	6	8	50	9	54	52	10	60	60	60	60	0.8333333333333333	0.08333333333333334	0.11666666666666667	0.8166666666666667	1.2183568301632597	2.0990186836651965	2.027980288130638	1.1479202490644997	-0.8806618535019368	1.1401825458994903	1.4679083604301355	1.39035255761871	1.5283873884064376	13	102	124	1	1	1	110	8	2.204861373545717	2.0898409100782205	1.188061111446771	1.4105411467544329	2.2037990590103504	-0.9017797986314495	3.0669596109993336	0.9618444180139392	1.3751734801138427	2.0330964389986175	3	4	48	2	4	2	4	48	9	53	0	1	52	10	0	0	2.0512973306642266	2.123521540501093	1.1662980488819492	2.0500129699934035	2.368831258001155	1.5223143225075972	1.687129318260121	1.1323204960043707	1.1401825458994903	1.4540236302682448		2.2037990590103504	1.39035255761871	1.5283873884064376		
sub-01	ses-027	133	99	1	116	232	117	0.564728853521957	2.569399758636123	1.494048940741872	1.664237446839772	2.954169072043157	1.6063971383224551	-1.460120131301285	56	7	19	51	4	47	40	8	60	54	59	59	0.9247863247863248	0.12108262108262108	0.31348688975807615	0.8558597711140085	1.1805233107028277	2.342388841531778	2.539567980794238	1.3323664743823074	-1.1618655308289505	1.6275213234836698	1.560575716378308	1.6752116394155891	2.2367372120998383	25	108	99	0	0	1	113	3	2.29813590303492	2.612021943305064	1.2352588938522444	1.664237446839772		-1.3767630494528198		2.954169072043157	1.5919212370386466	2.151656086679239	1	6	55	1	15	3	4	48	4	47	0	0	40	8	0	0	3.3040144239598987	2.350405576294295	1.1419143813708807	2.2942884329566766	2.5839816807343956	3.0447918299616674	2.3730166060186484	1.2253398896585974	1.6275213234836698	1.560575716378308			1.6752116394155891	2.2367372120998383		
sub-01	ses-028	139	100	0	120	239	120	0.5815899581589958	2.8442199274036732	1.4370936601104483	1.9319539169736228		1.8209084380646243		57	8	15	59	3	51	45	1	60	59	60	60	0.95	0.13559322033898305	0.25	0.9833333333333333	1.2056791840920142	2.149895337828203	2.436818220255276	1.3098452416212327	-0.9442161537361888	1.9330141429323646	1.9094885970608295	1.9582745652761753	1.8900753810349864	19	120	98	2	0	0	118	2	2.6435012897178094	2.486626052385881	1.2709176980001715	1.9099923914631052	3.008068666988983	-1.2157083543857097			1.8065073095086055	2.670575022869741	0	5	57	3	11	3	4	56	3	50	0	1	44	1	1	0		2.588009845376015	1.2056791840920142	1.4197044919151836	2.6225635934223166	1.8192154136020615	1.9260184440459138	1.2825575538365455	1.9330141429323646	1.89190466622282		2.7886851389612985	1.9294296191457094	1.8900753810349864	3.2274521950166672	
sub-01	ses-029	131	87	3	112	218	115	0.5748304746709214	2.197418479080967	1.6735152217582983	1.8652222463709114	2.868662378418572	1.8048294350198062	-1.1951471566602738	46	16	24	45	8	41	31	7	54	57	55	52	0.8257648953301128	0.25461479786422575	0.4102766798418972	0.8392976588628763	1.4696416018666396	2.5895924407773445	2.2617065953758217	1.242500956066987	-1.119950838910705	1.7127683912892842	1.8552467505667924	1.7792421016385473	2.478652339988792	34	97	85	2	3	0	106	6	2.485373072589336	2.6609696876487745	1.3273971615492655	1.8675851933799479	1.764796998486851	-1.333572526099509	2.868662378418572		1.7943664191165996	1.9896760493097918	7	12	39	4	12	3	12	42	8	40	0	1	31	6	0	1	2.3420060434751204	2.8505692147634316	1.3130633687574251	1.8066621188190828	2.5996108757029277	2.892255330045392	1.9238023150487156	1.1246613579256726	1.7127683912892842	1.8563230784349163		1.812193635841837	1.7792421016385473	2.60552766979828		1.7174003611318651
sub-01	ses-030	91	94	3	91	185	94	0.45997699827487065	1.8330414945763938	1.599641108538873	1.9029585581526507	3.095051979180425	1.9491308162590646	-1.4954108706415519	41	4	7	39	11	40	33	10	52	44	40	49	0.7565466448445172	0.05899419729206964	0.14308510638297872	0.7640034737299175	1.3936051450297224	3.2192294328566637	2.4027584874337293	1.50598212275272	-1.8256242878269413	1.777544176685202	1.8918978873132741	1.927960276899469	2.0026513892598476	19	72	91	3	2	1	87	4	2.021607033534231	2.4868106178360936	1.3655269324743289	1.9006368253789458	1.9733844522883528	-1.1212836853617647	3.435433158706871	2.414289620127533	1.936804697402251	2.2172239013947594	4	4	37	0	6	5	1	34	11	39	0	1	31	10	2	0	2.105266091455702	3.2192294328566637	1.3166688264971842		2.2796935894774912	2.4546516209542744	3.141147875171157	1.3664719024289618	1.777544176685202	1.890852232107846		1.9326784403249635	1.9237165877787865	2.0026513892598476	1.9937374582700476	
sub-01	ses-031	126	109	7	113	235	120	0.4778368794326241	1.6597094835063497	1.3575133201088174	1.832167555091203	2.121380753027547	1.8071653312527116	-0.7638674329187294	56	7	11	52	4	50	47	8	60	57	58	60	0.875	0.06447368421052631	0.13132183908045975	0.8083333333333333	1.1663515706623098	2.3936808935606075	2.2518168169818797	1.2347161372095519	-1.2273293228982978	1.567919473540968	1.906738758010045	1.8202704561929777	1.5681170336506352	22	104	106	3	6	1	109	4	2.2494807199419027	2.2095444597854206	1.1772759636387666	1.8293656527417952	1.9311681047702887	-1.032268496146654	2.4741090407595094	0.0050110266357705	1.7895527669766913	2.28710770777427	3	6	53	1	7	6	4	46	4	48	0	2	47	7	0	1	1.8072675737738753	2.525720111333456	1.1300733063352402	1.6014455869235178	2.457172415727478	1.8056079693107574	1.892444519177083	1.160251985196351	1.567919473540968	1.8674883745381763		2.848747961334894	1.8202704561929777	1.778418268223429		0.0960083916410781
sub-01	ses-032	128	88	9	100	216	109	0.5100237852531431	1.6222173234617987	1.772449835585286	2.0553096893878506	2.633225865200578	1.8699990706726926	-0.8607760296152922	41	17	29	41	14	37	25	12	55	54	54	53	0.6628857381150959	0.23224600747536528	0.45446822969758754	0.6910160983209279	1.600254022165589	2.1604348078622158	2.311795000422359	1.4022857878102772	-0.5601807856966268	1.6470414909228137	1.9548207423881323	2.346339996518943	2.2351503676564146	45	83	84	4	7	2	97	3	1.7948030960591552	2.3241588811791636	1.4733304735163162	2.0748991440726643	1.6439311410067603	-0.8508284076628474	2.939470345902126	1.5613701827451614	1.8442365699248	2.7029865948545457	12	9	29	8	17	7	12	34	14	36	0	1	24	10	1	2	2.05668566342133	2.3957190168628393	1.4113857568183856	1.8957400727365148	2.492986855770952	2.2806677131620945	2.055106538678519	1.2214424502378445	1.6470414909228137	1.9985791640645953		0.3795175620354598	2.3529123819177067	2.2814200156833997	2.188602746948604	2.003802127521489
sub-01	ses-033	110	105	3	102	215	105	0.4830564784053156	1.9313674643051366	1.5767566024633606	2.027557367904583	1.1733248403340422	1.8377570935684633	0.4034317621293184	43	14	11	42	14	41	38	12	57	55	49	54	0.7258145363408521	0.22597402597402594	0.19591836734693877	0.7492063492063492	1.46381413634868	2.2953591002852027	2.181046103545397	1.294587711071053	-0.8315449639365227	1.9948027572138922	2.0629566554876964	1.9683274665525277	2.1323848687495968	24	86	102	3	1	2	99	3	1.8204814313609252	2.3665063122079886	1.3563613346276506	2.0230492262743365	2.180834183332981	-1.010144977580338	1.6961992110002768	0.9118876550009247	1.8159037509897435	2.5589173986662104	5	12	38	2	6	1	5	41	13	41	1	0	36	12	2	0	2.13517706419978	2.3906319699162117	1.375476908999851	1.7237218824991487	2.441862298999729	2.7815087389999107	1.8680666690001981	1.2583213445362027	2.020500695691873	2.0629566554876964	1.6607295570001384		1.9420741871110347	2.1323848687495968	2.4408864964994024	
sub-01	ses-034	93	119	3	105	212	108	0.4109014675052411	1.7601871721180875	1.4977883287673932	1.918583900909325	1.7252760792927166	1.7370144660343387	-0.22748775052532344	37	5	10	41	16	50	44	9	53	55	54	50	0.670335429769392	0.06313131313131314	0.15740740740740738	0.7922222222222222	1.3432823999516803	2.275394615001976	2.3638817298863994	1.331148180567842	-0.9321122150502956	2.0535854679820478	2.0469311554727185	1.843047959386496	1.3348276370950205	19	74	113	6	3	0	101	4	2.2144617349721	2.393097890668404	1.267911549360377	1.9079010804705925	2.119777019172126	-1.125186341308027	1.7252760792927166		1.7110251688166065	2.3932442207820745	2	4	35	1	8	5	2	36	15	47	1	3	42	9	2	0	1.8353244389942915	2.5259677744866362	1.3151657120063882	1.2731019770633338	2.5724541411071526	2.222941363581465	1.5295920850033866	1.2072880162603945	2.1023248580483105	2.0153471595876242	1.322494616988109	2.5417470910058597	1.8410281901899703	1.3348276370950205	1.8854631125135337	
sub-01	ses-035	133	105	3	117	238	120	0.5338235294117647	2.107951094265893	1.526252411389724	1.8567873447325454	2.94761441542767	1.7019455162774089	-1.4213620040379462	55	8	17	53	5	52	42	6	60	60	59	59	0.8916666666666666	0.10833333333333334	0.26313559322033897	0.8733050847457627	1.3907399634568185	2.3918964946502825	2.333924824041043	1.2771505426190242	-1.001156531193464	2.3490809186436308	1.8222958675010799	1.7867319709641323	2.2358564521915656	29	104	104	1	2	1	115	2	2.2353360778488747	2.4201268945952306	1.27699894972665	1.8598145556051409	1.5419574139826002	-1.1431279448685805	3.368625305639579	2.105592635003852	1.6934934105091626	2.187941597951575	6	8	49	0	11	4	6	49	5	51	0	1	42	6	0	0	2.189455745823994	2.3918964946502825	1.2929380309220622		2.6784589483868326	2.112181269715073	1.7022789294070957	1.2089847689785305	2.3490809186436308	1.827792699923011		1.5419574139826002	1.7867319709641323	2.2358564521915656		
sub-01	ses-036	94	107	6	96	201	102	0.4088381621305238	1.4835773774303873	1.8091832950201772	2.023409981813225	2.5240148538325826	1.8821460187389334	-0.7148315588124055	26	10	18	40	21	42	29	15	47	52	47	55	0.49436795994993743	0.13348416289592763	0.3241551939924906	0.6684491978609626	1.616581529036162	2.541737785199076	2.4686291618313745	1.4544851803000236	-0.9251562561629139	2.263831414331936	1.8452571457144493	2.020134608759466	2.191980305267534	26	68	103	4	3	3	88	8	1.4724258890363247	2.6330551047681827	1.4941734854106457	2.0304606178641493	1.8418561035019225	-1.138881619357537	2.5748503616675316	2.4731793459976337	1.8553628143857106	2.1767612666243843	4	8	22	2	9	5	9	35	19	41	2	1	29	14	0	1	2.1908300287486027	2.6525082663743538	1.5121727109066276	2.0986558604979635	2.6937275742187134	2.846499662003019	2.2435307494440355	1.2556259686281672	2.316118660156222	1.851136332171097	1.7671025790012163	1.604210500991904	2.020134608759466	2.189335415999975		2.229008755013353
