subject	session	run	hit	miss	false_alarm	correct_rej	old	new	rate_hit_minus_FA	dprime	rt_hit	rt_miss	rt_FA	rt_CR	diff_rt_hit_minus_FA	hit_within	hit_between	hit_within_between	hit_between_within	miss_within	miss_between	miss_within_between	miss_between_within	old_within	old_between	old_within_between	old_between_within	rate_Hwith_min_FA	rate_Hbetw_min_FA	rate_Hwith_betw_min_FA	rate_Hbetw_with_min_FA	rt_hit_within	rt_hit_between	rt_hit_within_between	rt_hit_between_within	diff_rt_Hwith_min_Hbetw	rt_miss_within	rt_miss_between	rt_miss_within_between	rt_miss_between_within	hit_loConf	hit_hiConf	miss_loConf	miss_hiConf	FA_loConf	FA_hiConf	CR_loConf	CR_hiConf	dprime_hiConf	rt_hit_loConf	rt_hit_hiConf	rt_miss_loConf	rt_miss_hiConf	diff_rt_hitHC_minus_hitLC	rt_FA_loConf	rt_FA_hiConf	rt_CR_loConf	rt_CR_hiConf	hit_within_loConf	hit_between_loConf	hit_within_hiConf	hit_between_hiConf	hit_within_between_loConf	hit_between_within_loConf	hit_within_between_hiConf	hit_between_within_hiConf	miss_within_loConf	miss_between_loConf	miss_within_hiConf	miss_between_hiConf	miss_within_between_loConf	miss_between_within_loConf	miss_within_between_hiConf	miss_between_within_hiConf	rt_hit_within_loConf	rt_hit_between_loConf	rt_hit_within_hiConf	rt_hit_between_hiConf	rt_hit_within_between_loConf	rt_hit_between_within_loConf	rt_hit_within_between_hiConf	rt_hit_between_within_hiConf	rt_miss_within_loConf	rt_miss_between_loConf	rt_miss_within_hiConf	rt_miss_between_hiConf	rt_miss_within_between_loConf	rt_miss_between_within_loConf	rt_miss_within_between_hiConf	rt_miss_between_within_hiConf
sub-01	ses-002	run-1	25	15	1	18	40	19	0.5723684210526316	1.938495622602645	1.8882184410095229	2.735307655334474	3.16254894256592	2.5914951001273274	-1.2743305015563973	6	5	8	6	0	9	6	0	6	14	14	6	0.9473684210526316	0.30451127819548873	0.518796992481203	0.9473684210526316	1.2711699628829927	2.7221568317413345	2.3485488390922526	1.19654439608257	-1.4509868688583418		2.3755361207326238	3.2749649572372497		9	16	15	0	1	0	15	3	1.684584407717029	2.812156214184233	1.3685034435987482	2.735307655334474		-1.4436527705854847	3.16254894256592		2.5761668593088793	2.668136304219568	0	4	6	1	5	0	3	6	0	9	0	0	6	0	0	0		2.8352245116233856	1.2711699628829927	2.269886112213129	2.793701576232911		1.6066276105244885	1.19654439608257		2.3755361207326238			3.2749649572372497			
sub-01	ses-002	run-2	30	10	0	20	40	20	0.75	2.634453734736136	1.6887969560623204	2.4451907615661646		2.4666215257644626		8	5	9	8	0	7	3	0	8	12	12	8	1.0	0.4166666666666667	0.75	1.0	1.1824031960964234	2.428901554107669	2.162663727866286	1.1995252239704142	-1.2464983580112454		2.269165228434974	2.8559170055389416		10	20	8	2	0	0	17	3	1.9599639845400545	2.2599710645675684	1.4032099018096966	2.359578831195834	2.7876384830474876	-0.8567611627578717			2.4863690998974954	2.3547186056772773	0	3	8	2	7	0	2	8	0	5	0	2	3	0	0	0		2.4366542847951274	1.1824031960964234	2.4172724580764804	2.184249684470043		2.087112879753135	1.1995252239704142		2.061775926589969		2.7876384830474876	2.8559170055389416			
sub-01	ses-002	run-3	28	12	0	20	40	20	0.7	2.4843644972480954	1.4745149803161641	2.547155985037484		2.47263538503647		10	3	5	10	0	7	5	0	10	10	10	10	1.0	0.3	0.5	1.0	1.2881896934509292	1.9014689127604167	2.1706713027954123	1.1846759262084998	-0.6132792193094876		2.588072203227451	2.4898732795715306		5	23	9	3	0	0	18	2	2.149082410812847	2.2604433021545414	1.3036609973078215	2.4758457840813524	2.7610865879058792	-0.9567823048467199			2.5083584928512597	2.151127414703364	0	1	10	2	4	0	1	10	0	5	0	2	4	0	1	0		1.7557238292694135	1.2881896934509292	1.9743414545059181	2.386623170375824		1.3068638324737665	1.1846759262084998		2.545150712966921		2.695375928878775	2.389214622974391		2.892507905960088	
sub-01	ses-002	run-4	32	8	1	18	40	19	0.7473684210526317	2.461477492211184	1.591042699813844	2.285954478979113	2.7558201408386225	2.4015743907292686	-1.1647774410247784	10	4	8	10	0	6	2	0	10	10	10	10	0.9473684210526316	0.3473684210526316	0.7473684210526317	0.9473684210526316	1.352345140457151	1.9045188784599283	2.1721767294406877	1.2394425640106288	-0.5521737380027774		2.332805097897847	2.1454026222229103		8	24	6	2	1	0	9	9	2.1912786139886284	1.911192013025282	1.4843262620766982	2.3172129535675072	2.1921790552139306	-0.4268657509485838	2.7558201408386225		2.545902438693576	2.2572463427649607	0	2	10	2	5	1	3	9	0	4	0	2	2	0	0	0		1.8037197065353325	1.352345140457151	2.005318050384524	2.276436737060544	0.2999130058288699	1.9984100500742603	1.3438347371419352		2.403118119239806		2.1921790552139306	2.1454026222229103			
sub-01	ses-002	run-5	29	11	1	19	40	20	0.6749999999999999	2.242613752993951	1.679972663747853	2.5754402689500315	3.730990905761729	2.2419178842243417	-2.051018242013876	11	1	5	12	1	7	3	0	12	8	8	12	0.8666666666666666	0.075	0.575	0.95	1.636353256052189	3.1950900077819853	1.9582673110961935	1.4777412390708922	-1.5587367517297963	3.843635940551764	2.3033290467943486	2.7876345634460478		4	25	10	1	1	0	14	5	2.2786033485044297	2.890318398475646	1.486317346191406	2.6745706071853665	1.5841368865966814	-1.4040010522842399	3.730990905761729		2.33814782142639	1.9724740600586066	1	1	10	0	2	0	3	12	1	6	0	1	3	0	0	0	3.1626868534088146	3.1950900077819853	1.4837198963165261		2.601748366355892		1.529279940923061	1.4777412390708922	3.843635940551764	2.423194406827293		1.5841368865966814	2.7876345634460478			
sub-01	ses-002	run-6	32	6	1	19	38	20	0.7921052631578946	2.6480015946140067	1.67320425987244	2.815559220314024	2.695535926818848	2.1019881429170297	-1.022331666946408	14	2	2	14	0	4	2	0	14	6	4	14	0.95	0.2833333333333333	0.45	0.95	1.705078173364916	2.5737328815460288	1.8066593742370571	1.493618384088791	-0.8686547081811127		2.6437763977050786	3.159124865531915		6	26	6	0	1	0	17	2	2.439469637871005	2.596100840568546	1.4602281258656462	2.815559220314024		-1.1358727147029	2.695535926818848		2.105846943574792	2.069188337326053	2	1	12	1	1	2	1	12	0	4	0	0	2	0	0	0	2.8462493181228723	2.8796008014679018	1.5148829825719234	2.267864961624156	2.2880427837371826	2.358231410980224	1.3252759647369317	1.349516212940219		2.6437763977050786			3.159124865531915			
sub-01	ses-003	run-2	28	11	2	18	39	20	0.617948717948718	1.8583101300523983	1.604920677798135	2.695733637376269	2.8881620454788184	2.303312820858428	-1.2832413676806833	8	5	7	8	0	7	4	0	8	12	11	8	0.9	0.31666666666666665	0.5363636363636364	0.9	1.090749109983451	2.2046351814269984	2.2042297295161637	1.219875260591504	-1.1138860714435475		2.5594494574410587	2.9342309522628867		9	19	11	0	2	0	10	8	1.927822191212716	2.3131264474656796	1.269454786902982	2.695733637376269		-1.0436716605626977	2.8881620454788184		2.509114778518677	2.0460603737831162	0	4	8	1	5	0	2	8	0	7	0	0	4	0	0	0		2.295389997959133	1.090749109983451	1.841615915298462	2.3273156070709176		1.8965150356292781	1.219875260591504		2.5594494574410587			2.9342309522628867			
sub-01	ses-003	run-3	32	8	0	20	40	20	0.8	2.801585218112969	1.458561251461505	2.5944161128997787		2.4242123250961365		10	5	7	10	0	5	3	0	10	10	10	10	1.0	0.5	0.7	1.0	1.2530058650970446	1.9947670211792001	1.849613343647547	1.1222772884368886	-0.7417611560821555		2.668809295654296	2.4704274749755832		5	27	8	0	0	0	12	8	2.413726174709934	2.1168831100463827	1.3366497961680093	2.5944161128997787		-0.7802333138783735			2.4170804540316353	2.434910131692888	1	1	9	4	3	0	4	10	0	5	0	0	3	0	0	0	1.733820934295636	2.6551327896118195	1.1995819685194233	1.8296755790710453	2.0651539421081524		1.6879578948020928	1.1222772884368886		2.668809295654296			2.4704274749755832			
sub-01	ses-003	run-4	25	15	1	19	40	20	0.575	1.963492990915848	1.569600452423096	2.527631648381555	3.852323970794657	2.400498392205491	-2.2827235183715606	10	2	4	9	0	8	6	1	10	10	10	10	0.95	0.15000000000000002	0.35000000000000003	0.85	1.2822177038192755	2.7200169038772586	2.4515758919715918	1.241277432971529	-1.4377992000579831		2.5977167773246785	2.5526186037063674	1.8170288848876908	5	20	12	3	0	1	13	6	1.6448536269514729	2.6676530780792262	1.2950872960090634	2.56151957670848	2.3920799350738537	-1.3725657820701629		3.852323970794657	2.5179288467994123	2.1460657405853283	0	2	10	0	3	0	1	9	0	6	0	2	5	1	1	0		2.7200169038772586	1.2822177038192755		2.632743860880538		1.908071985244753	1.241277432971529		2.6313397185007745		2.4968479537963892	2.6266335449218845	1.8170288848876908	2.1825438976287828	
sub-01	ses-003	run-5	30	10	2	17	40	19	0.6447368421052632	1.9266092704613014	1.6788432569503804	2.2953687067031887	3.037631907463073	2.4769327101987955	-1.3587886505126925	11	3	4	12	1	5	4	0	12	8	8	12	0.8114035087719298	0.26973684210526316	0.39473684210526316	0.8947368421052632	1.7854222219640574	2.2443412685394333	1.9935971069335938	1.3348534194628423	-0.45891904657537586	2.576294841766355	2.278332324981693	2.2464326500892664		7	23	9	1	2	0	15	2	2.127049937125621	2.3004140445164256	1.489669538995497	2.367940342161394	1.6422239875793423	-0.8107445055209286	3.037631907463073		2.5185516923268634	2.164790344238284	1	3	10	0	2	1	2	11	1	4	0	1	4	0	0	0	3.2108309459686097	2.2443412685394333	1.642881349563602		2.213481292724609	1.7320809745788497	1.7737129211425788	1.2987418235432053	2.576294841766355	2.437359409332281		1.6422239875793423	2.2464326500892664			
sub-01	ses-003	run-6	27	11	1	19	38	20	0.6605263157894736	2.1997765696541265	1.4488255165241417	2.4833823906291634	2.554113035202022	2.285201402965343	-1.10528751867788	10	0	3	14	2	6	3	0	12	6	6	14	0.7833333333333333	-0.05	0.45	0.95	1.3776641407012982		2.1738133494059277	1.34430053506579		2.13536051750183	2.578039183616642	2.5260833867390957		3	24	10	1	1	0	16	3	2.2960021249118774	2.3929206879933695	1.330813620090488	2.561965728759768	1.6975490093231187	-1.0621070679028815	2.554113035202022		2.389489838480948	1.728996413548785	0	0	10	0	2	1	1	13	2	6	0	0	2	0	1	0			1.3776641407012982		2.476555538177493	2.225650987625123	1.5683289718627975	1.2765043464073798	2.13536051750183	2.578039183616642			2.9403505754470842		1.6975490093231187	
sub-01	ses-004	run-1	27	13	0	20	40	20	0.675	2.413726174709934	1.896378263190943	2.4026827049255397		2.489790693759917		6	8	7	6	0	6	7	0	6	14	14	6	1.0	0.5714285714285714	0.5	1.0	1.3299690707524594	2.3577761602401757	2.55718074526106	1.0766540304819803	-1.0278070894877163		2.4165113560358717	2.3908295754023987		10	17	13	0	0	0	17	3	1.770845558267262	2.7209054002761857	1.411362300199624	2.4026827049255397		-1.3095431000765616			2.5249554824829077	2.2905235576629672	0	6	6	2	4	0	3	6	0	6	0	0	7	0	0	0		2.5144474156697565	1.3299690707524594	1.8877623939514336	3.0305923771858296		1.9259652360280342	1.0766540304819803		2.4165113560358717			2.3908295754023987			
sub-01	ses-004	run-2	26	14	4	16	40	20	0.45	1.2269416999804819	1.7586773806351899	2.2438583694185534	2.594416334629063	2.1849547088146215	-0.8357389539938731	7	5	6	8	1	7	6	0	8	12	12	8	0.675	0.21666666666666667	0.3	0.8	1.2728444440024305	2.496574274063113	2.2782819700241084	1.3328921997547134	-1.2237298300606825	2.370087919235232	2.404150577272689	2.035812535285949		4	22	13	1	3	1	16	0	1.770514973806547	2.4031075143814107	1.6415082654086042	2.228918478305524	2.4380769538879434	-0.7615992489728065	2.801000776290896	1.974663009643564	2.1849547088146215		0	2	7	3	2	0	4	8	1	6	0	1	6	0	0	0		2.4716070318222094	1.2728444440024305	2.513219102223715	2.3346079969406115		2.2501189565658564	1.3328921997547134	2.370087919235232	2.398496181170147		2.4380769538879434	2.035812535285949			
sub-01	ses-004	run-3	29	11	0	20	40	20	0.725	2.557724110582533	1.860828839006096	2.412050115411935		2.451801050186158		9	5	5	10	1	5	5	0	10	10	10	10	0.9	0.5	0.5	1.0	1.7515157233344165	2.7717887020111123	2.363955247879022	1.2521675071716363	-1.0202729786766958	1.914865074157717	2.574723646163941	2.3488135929107727		11	18	11	0	0	0	20	0	1.8343026376849805	2.569184076135808	1.4279450829823832	2.412050115411935		-1.1412389931534246			2.451801050186158		1	5	8	0	5	0	0	10	1	5	0	0	5	0	0	0	2.582305088043213	2.7717887020111123	1.6476670527458168		2.363955247879022			1.2521675071716363	1.914865074157717	2.574723646163941			2.3488135929107727			
sub-01	ses-004	run-4	27	13	0	20	40	20	0.675	2.413726174709934	1.6685430957652914	2.589592202993539		2.56440806102753		9	4	4	10	1	6	6	0	10	10	10	10	0.9	0.4	0.4	1.0	1.4140930758582246	2.7908750462532	2.020971570014953	1.3076439437866234	-1.3767819703949755	2.523905038833618	2.435237572987879	2.754894693692519		6	21	12	1	0	0	16	4	2.0226707624832683	2.596488391558325	1.4034158683958533	2.573689541021982	2.780424146652222	-1.1930725231624715			2.532219939827922	2.693160545825961	0	4	9	0	2	0	2	10	1	5	0	1	6	0	0	0		2.7908750462532	1.4140930758582246		2.2077150821685745		1.8342280578613313	1.3076439437866234	2.523905038833618	2.3662002582550103		2.780424146652222	2.754894693692519			
sub-01	ses-004	run-5	29	10	0	19	39	19	0.7435897435897436	2.5923837115848327	1.6329909058274903	2.7345176753997835		2.374505403920224		10	3	4	12	2	5	3	0	12	8	7	12	0.8333333333333334	0.375	0.5714285714285714	1.0	1.5958860816955542	2.4537770875295024	1.8587033462524332	1.3834775670369528	-0.8578910058339482	2.3482620382308994	2.7660841007232677	2.939410724639899		8	21	10	0	0	0	19	0	2.034490126142468	2.1239248263835844	1.4459684599013591	2.7345176753997835		-0.6779563664822252			2.374505403920224		2	2	8	1	4	0	0	12	2	5	0	0	3	0	0	0	2.4322360563278096	2.3460565567016616	1.3867985880374905	2.669218149185184	1.8587033462524332			1.3834775670369528	2.3482620382308994	2.7660841007232677			2.939410724639899			
sub-01	ses-004	run-6	25	8	1	17	33	18	0.702020202020202	2.2917445283681106	1.9586449054718051	2.281129930019376	3.6817979431152414	2.392743767009061	-1.7231530376434363	13	1	2	9	1	3	3	1	14	4	5	10	0.873015873015873	0.19444444444444445	0.34444444444444444	0.8444444444444444	2.0137681227464004	3.1004391193390006	1.9864035034179597	1.7459878794352224	-1.0866709965926002	1.858561124801636	2.424372704823815	2.2301380252838108	2.426946125030497	4	21	6	2	1	0	16	1	2.263261520572602	2.7067972826957707	1.8161396907624783	2.203425383567806	2.514243569374086	-0.8906575919332924	3.6817979431152414		2.3389427512884136	3.2535600185394173	1	1	12	0	1	1	1	8	0	2	1	1	3	1	0	0	3.251453952789305	3.1004391193390006	1.9106276369094914		2.0902040195464906	2.3850920391082866	1.8826029872894288	1.6660998594760894		2.0515960502624537	1.858561124801636	3.1699260139465366	2.2301380252838108	2.426946125030497		
sub-01	ses-005	run-1	21	19	1	19	40	20	0.47500000000000003	1.7075604048946866	1.839817984898888	2.698977454838	2.519680004119863	2.5216788131312335	-0.6798620192209748	6	4	5	6	0	10	9	0	6	14	14	6	0.95	0.2357142857142857	0.30714285714285716	0.95	1.158805824915568	2.5948012733459507	2.8386994018554814	1.1851067717870052	-1.4359954484303827		2.613973885536193	2.79342586517334		9	12	18	1	1	0	10	9	1.4355634718320136	2.7303002336290234	1.1719562983512866	2.684018541971843	2.968237886428824	-1.5583439352777368	2.519680004119863		2.645054865837097	2.384594310124719	0	4	6	0	5	0	0	6	0	10	0	0	8	0	1	0		2.5948012733459507	1.158805824915568		2.8386994018554814			1.1851067717870052		2.613973885536193			2.7715743625164047		2.968237886428824	
sub-01	ses-005	run-2	23	17	1	19	40	20	0.5249999999999999	1.8339720532242652	1.7183815574646024	2.4975982968947448	2.986650075912479	2.3586286037846635	-1.2682685184478766	7	3	5	8	1	9	7	0	8	12	12	8	0.825	0.2	0.3666666666666667	0.95	1.549499439511982	2.568334989547729	1.9086302757263183	1.4285154247284004	-1.018835550035747	2.741181945800776	2.5040156883663607	2.4545497008732338		7	16	16	1	1	0	17	2	1.7066168814042548	2.439893599918917	1.40272003889084	2.459442253708837	3.108094987869263	-1.0371735610280768	2.986650075912479		2.32893531967612	2.6110215187072825	0	3	7	0	3	1	2	7	1	8	0	1	7	0	0	0		2.568334989547729	1.549499439511982		2.0764157422383627	3.145003004074141	1.6569520759582517	1.1833029133932946	2.741181945800776	2.4285057759284983		3.108094987869263	2.4545497008732338			
sub-01	ses-005	run-3	21	16	3	17	37	20	0.4175675675675675	1.206618113606159	1.637853661491757	2.4070368367433588	3.4464389705658007	2.374593408248006	-1.8085853090740438	9	1	4	7	1	9	5	1	10	10	9	8	0.75	-0.04999999999999999	0.2944444444444444	0.725	1.4240927293565495	2.436807918548581	2.7911719250679035	1.1395138154711077	-1.0127151891920316	3.004176874160777	2.484872091081412	2.077591369628908	2.756606845855714	7	14	16	0	2	1	16	1	1.3351110954129426	2.476421499252321	1.218569742611475	2.4070368367433588		-1.257851756640846	3.6300719451904335	3.079173021316535	2.338777067065241	2.947654867172247	2	1	7	0	4	0	0	7	1	9	0	0	5	1	0	0	1.8667274379730259	2.436807918548581	1.297625669751842		2.7911719250679035			1.1395138154711077	3.004176874160777	2.484872091081412			2.077591369628908	2.756606845855714		
sub-01	ses-005	run-4	22	18	0	20	40	20	0.55	2.0856253313951285	1.7210498432679615	2.1717350408766034		2.149977465152741		8	2	3	9	2	8	7	1	10	10	10	10	0.8	0.2	0.3	0.9	1.239979826211929	3.0595626449585005	2.9613104470570875	1.4378001456790506	-1.8195828187465715	2.5887636137008916	2.2252312445640587	1.9871257713862829	2.201973152160633	4	18	18	0	0	0	20	0	1.8343026376849805	3.030861365795138	1.4299806160397	2.1717350408766034		-1.600880749755438			2.149977465152741		0	2	8	0	2	0	1	9	2	8	0	0	7	1	0	0		3.0595626449585005	1.239979826211929		3.0021600866317755		2.8796111679077114	1.4378001456790506	2.5887636137008916	2.2252312445640587			1.9871257713862829	2.201973152160633		
sub-01	ses-005	run-5	29	11	1	19	40	20	0.6749999999999999	2.242613752993951	1.708288305874531	2.6011898439580743	2.9538619804382327	2.513195337496306	-1.2455736745637016	12	3	3	11	0	5	5	1	12	8	8	12	0.95	0.325	0.325	0.8666666666666666	1.4069001913070682	2.6688907273610476	2.4121401373545504	1.5831332709572536	-1.2619905360539794		2.602921083450312	2.759796936035161	1.7994981861114496	8	21	11	0	1	0	17	2	2.0226707624832683	2.596913474798211	1.3697644319988436	2.6011898439580743		-1.2271490427993677	2.9538619804382327		2.5659298924838794	2.064951620101935	0	3	12	0	3	2	0	9	0	5	0	0	5	1	0	0		2.6688907273610476	1.4069001913070682		2.4121401373545504	2.7661076021194475		1.3202500862545439		2.602921083450312			2.759796936035161	1.7994981861114496		
sub-01	ses-005	run-6	26	14	1	17	40	18	0.5944444444444444	1.9785392844306184	1.6568602033761857	2.4040654161998205	2.330031032562257	2.293430066950182	-0.6731708291860712	11	1	1	13	3	5	5	1	14	6	6	14	0.7301587301587301	0.1111111111111111	0.1111111111111111	0.873015873015873	1.3631474876403873	3.063357896804831	2.6089280033111635	1.7239582325861977	-1.7002104091644439	1.9959070014953582	2.426165781021119	2.7931282100677506	1.5727248668670626	4	22	12	2	1	0	15	2	2.0401671719106313	2.9345989608764746	1.4245440656488604	2.453820811907452	2.105533041954033	-1.5100548952276143	2.330031032562257		2.213965281804404	2.8894159555435177	0	1	11	0	1	2	0	11	2	4	1	1	5	1	0	0		3.063357896804831	1.3631474876403873		2.6089280033111635	3.033054971694952		1.4859406436573332	2.030988974571229	2.4613764691352866	1.9257430553436168	2.285323028564449	2.7931282100677506	1.5727248668670626		
sub-01	ses-006	run-1	13	26	2	17	39	19	0.22807017543859648	0.8213922209697619	1.5143912249345064	2.4022082185745246	2.9294298887252808	2.5508850810107084	-1.4150386637907744	6	1	0	6	0	13	13	0	6	14	13	6	0.8947368421052632	-0.03383458646616541	-0.10526315789473684	0.8947368421052632	1.5514618062973018	2.2394668674469003		1.3564747031529787	-0.6880050611495985		2.4017597682659444	2.402656668883105		2	11	25	1	2	0	14	3	1.3611729463450308	2.1102304363250646	1.4060568228634958	2.39027258682251	2.70059901237488	-0.7041736134615688	2.9294298887252808		2.549249264172149	2.5585188929239893	1	1	5	0	0	0	0	6	0	12	0	1	13	0	0	0	1.9809940052032289	2.2394668674469003	1.4655553665161165					1.3564747031529787		2.376856497923533		2.70059901237488	2.402656668883105			
sub-01	ses-006	run-2	23	16	1	19	39	20	0.5397435897435897	1.871739071487352	2.0945991097325884	2.8111401772499103	3.92259891510011	2.5538205618607366	-1.8279998053675217	7	3	5	8	1	8	7	0	8	11	12	8	0.825	0.22272727272727272	0.3666666666666667	0.95	1.8814121314457484	2.353107678095512	2.2475079898834225	2.088628952503206	-0.47169554664976343	3.016390085220337	2.6266978573799125	2.992609984534132		13	10	15	1	1	0	19	0	1.3055117838080506	2.5281739829136813	1.5309517745971675	2.7974568500518817	3.016390085220337	-0.9972222083165139	3.92259891510011		2.5538205618607366		3	2	4	1	5	3	0	5	0	8	1	0	7	0	0	0	2.428162631988528	2.79071249961855	1.471349256038664	1.477898035049435	2.2475079898834225	2.9209363110860216		1.5892445373535167		2.6266978573799125	3.016390085220337		2.992609984534132			
sub-01	ses-006	run-3	21	17	1	16	38	17	0.49380804953560375	1.6970393236379702	2.041816234588624	2.709699134265677	2.946488113403319	2.8009536665678043	-0.9046718788146952	8	2	4	7	2	8	6	1	10	10	10	8	0.7411764705882353	0.1411764705882353	0.3411764705882353	0.8161764705882353	1.8726031577587108	2.51364349842072	2.714664278030396	1.7159102221897697	-0.6410403406620091	2.6386135339736967	2.442956277132038	3.1721230014165234	2.2112699890136724	9	12	15	2	1	0	15	1	1.4100043070024797	2.5436036894056553	1.66547564347585	2.8497378190358496	1.659408998489383	-0.8781280459298053	2.946488113403319		2.8116443125406922	2.640593976974486	2	2	6	0	4	1	0	6	2	7	0	1	5	1	1	0	2.229236545562749	2.51364349842072	1.7537253618240314		2.714664278030396	2.5480160045623776		1.5772259251276683	2.6386135339736967	2.7889316013881174		0.021129007339482	3.1470098037719714	2.2112699890136724	3.297688989639284	
sub-01	ses-006	run-4	20	12	2	14	32	16	0.5	1.468988744340383	2.0335073275566096	2.7398045651117955	1.2558048772811894	2.5326776824678707	0.7777024502754202	6	3	4	7	1	5	5	1	7	8	9	8	0.7321428571428571	0.25	0.3194444444444444	0.75	2.1754448111852014	1.7501809183756432	2.655972769260404	1.6775776931217774	0.42526389280955823	2.3058189105987594	2.6136737785339363	3.020279199600219	2.402070980072012	13	7	11	1	1	1	14	0	0.7576987832046186	2.228732194166917	1.6709468609946099	2.632774064324119	3.9171400737762383	-0.5577853331723073	2.3712688922882066	0.1403408622741722	2.5326776824678707		4	3	2	0	3	3	1	4	1	5	0	0	4	1	1	0	2.354294717311861	1.7501809183756432	1.8177449989318823		2.852009334564206	1.9165896320343119	2.067863073348999	1.4983187389373764	2.3058189105987594	2.6136737785339363			2.7960639810562142	2.402070980072012	3.9171400737762383	
sub-01	ses-006	run-5	18	19	0	19	37	19	0.4864864864864865	1.904051675449337	1.7820738416247903	2.7927572958092948		2.5442373014751225		8	1	3	6	3	7	4	5	11	8	7	11	0.7272727272727273	0.125	0.42857142857142855	0.5454545454545454	1.8517414009571067	2.210747995376593	2.14589623451233	1.4358268737792983	-0.35900659441948646	3.1892435550689675	2.5185630049024335	2.92977738618851	2.8291214752197247	6	12	18	1	0	0	17	2	1.4822911971149493	2.405487238566081	1.470367143154145	2.7331478728188427	3.865726909637431	-0.9351200954119361			2.5507166969074917	2.4891624402999852	1	1	7	0	3	1	0	5	3	7	0	0	4	4	0	1	3.953789806365961	2.210747995376593	1.5514487716129846		2.14589623451233	1.8306969261169428		1.3568528633117691	3.1892435550689675	2.5185630049024335			2.92977738618851	2.5699701166152984		3.865726909637431
sub-01	ses-006	run-6	23	13	3	13	36	16	0.45138888888888884	1.2426369768584067	2.2740751535996155	2.5071523681053764	3.495056619644164	2.638081639363217	-1.2209814660445484	9	1	2	11	3	4	4	2	12	5	6	13	0.5625	0.012500000000000011	0.14583333333333331	0.6586538461538461	2.5795651902092795	1.5230120468139603	2.346257486343383	2.0792831637642655	1.0565531433953192	2.511549005508423	2.433855228424072	2.41370397090912	2.8340484857559294	11	12	13	0	3	0	13	0	1.432004568126194	2.879091326973654	1.7194769946734139	2.5071523681053764		-1.1596143323002404	3.495056619644164		2.638081639363217		5	0	4	1	2	4	0	7	3	4	0	0	4	2	0	0	3.28853176689148		1.693356969356529	1.5230120468139603	2.346257486343383	2.6337076973915075		1.7624691445486984	2.511549005508423	2.433855228424072			2.41370397090912	2.8340484857559294		
sub-01	ses-007	run-1	14	26	2	17	40	19	0.24473684210526314	0.8667990538576518	2.3081811864035453	2.4216848593491807	2.8122505426406867	2.4336233262454776	-0.5040693562371414	6	0	2	6	0	14	12	0	6	14	14	6	0.8947368421052632	-0.10526315789473684	0.03759398496240601	0.8947368421052632	2.5098566023508675		3.265386462211609	1.7874373451868688			2.501912497792931	2.328085947831472		7	7	25	1	1	1	17	0	0.6852669675647897	2.8145977646963893	1.8017646081107017	2.421130453872684	2.435544996261597	-1.0128331565856876	3.0116971302032454	2.612803955078128	2.4336233262454776		4	0	2	0	1	2	1	4	0	14	0	0	11	0	1	0	2.8109665870666447		1.9076366329193135		3.334593000411985	2.56186250209808	3.1961799240112327	1.400224766731263		2.501912497792931			2.3183169434287336		2.435544996261597	
sub-01	ses-007	run-2	13	23	1	17	36	18	0.3055555555555556	1.2377284001835198	1.6867559902484606	2.5774022429922354	2.8583940315246537	2.532050542831424	-1.171638041276193	6	1	1	5	1	11	9	2	7	12	10	7	0.8015873015873015	0.027777777777777776	0.04444444444444445	0.6587301587301587	1.923259946505226	1.9402170181274407	0.0192490482330356	1.6857604255676306	-0.016957071622214714	2.442642145156867	2.7514576998623954	2.417118519677056	2.408754034042346	2	11	23	0	0	1	16	1	1.084730758913694	3.3311125278472886	1.3877820743214009	2.5774022429922354		-1.9433304535258877		2.8583940315246537	2.452854890227321	3.7991809844970703	1	0	5	1	0	1	1	4	1	11	0	0	9	2	0	0	3.5384200572967472		1.6002279243469217	1.9402170181274407		3.12380499839783	0.0192490482330356	1.3262492823600809	2.442642145156867	2.7514576998623954			2.417118519677056	2.408754034042346		
sub-01	ses-007	run-3	12	24	2	16	36	18	0.2222222222222222	0.7899130495518925	2.0649918119112622	2.472514469623568	0.17236004829406681	2.363931867480283	1.8926317636171954	6	0	0	6	2	10	8	4	8	10	8	10	0.6388888888888888	-0.1111111111111111	-0.1111111111111111	0.4888888888888889	2.0949394273757904			2.0350441964467336		2.096982135772709	2.2760814676284804	2.6464332711696645	2.8035255384445232	5	7	24	0	0	2	16	0	0.3590062286731778	2.6821326618194545	1.624176919119696	2.472514469623568		-1.0579557426997586		0.17236004829406681	2.363931867480283		4	0	2	0	0	1	0	5	2	10	0	0	8	4	0	0	2.5212693190574598		1.2422796440124522			3.3255860328674345		1.7769358291625934	2.096982135772709	2.2760814676284804			2.6464332711696645	2.8035255384445232		
sub-01	ses-007	run-4	14	18	1	15	32	16	0.375	1.3768098597423757	1.7892723410470148	2.422862929768035	3.608474950790409	2.6813374741872176	-1.819202609743394	7	0	0	7	2	7	8	1	9	7	8	8	0.7152777777777778	-0.0625	-0.0625	0.8125	1.6309692328316865			1.9475754492623432		2.863513512611391	2.34097522326878	2.311491513252264	3.005747041702272	2	12	18	0	0	1	15	0	1.215481180388171	3.093157005310054	1.5719582303365083	2.422862929768035		-1.5211987749735456		3.608474950790409	2.6813374741872176		1	0	6	0	0	1	0	6	2	7	0	0	8	1	0	0	2.261554908752444		1.5258716201782268			3.924759101867664		1.6180448404947896	2.863513512611391	2.34097522326878			2.311491513252264	3.005747041702272		
sub-01	ses-007	run-5	16	23	1	19	39	20	0.36025641025641025	1.4179681824155936	1.5752160543203346	2.1687903014473298	2.375985851287851	2.4029290179202465	-0.8007697969675163	9	0	0	7	2	8	8	5	11	8	8	12	0.7681818181818182	-0.05	-0.05	0.5333333333333333	1.5604339334699802			1.59422163827079		3.118658432960501	2.1696052134037065	1.9011729264259332	2.2157269897460936	2	14	22	1	1	0	18	1	1.5987623468287353	2.2723859548568726	1.4756203542436863	2.187947675965049	1.7473280620574982	-0.7967656006131862	2.375985851287851		2.3772613541285232	2.86494696617126	1	0	8	0	0	1	0	6	2	7	0	1	8	5	0	0	2.0563368892669587		1.4984460639953578			2.4884350204467864		1.4451860745747906	3.118658432960501	2.229930520738879		1.7473280620574982	1.9011729264259332	2.2157269897460936		
sub-01	ses-007	run-6	23	15	1	19	38	20	0.5552631578947368	1.9118477523564255	1.5146627256144634	2.249833684285483	3.816399183273319	2.0244411046881465	-2.3017364576588557	11	0	1	11	3	6	3	3	14	6	4	14	0.7357142857142857	-0.05	0.2	0.7357142857142857	1.5837591856176199		1.897923135757452	1.4107244101437626		2.3778754170735668	2.0884167528152484	2.6605317370096864	2.0339277617136653	5	18	15	0	1	0	18	1	1.8939521721642139	2.0486402511596666	1.3663356351852403	2.249833684285483		-0.6823046159744264	3.816399183273319		1.9666338841120437	3.064971075057997	2	0	9	0	1	2	0	9	3	6	0	0	3	3	0	0	2.1236885356903024		1.4637748856014683		1.897923135757452	2.048950524330138		1.2688963847690122	2.3778754170735668	2.0884167528152484			2.6605317370096864	2.0339277617136653		
sub-01	ses-008	run-1	16	16	1	17	32	18	0.4444444444444444	1.5932188180230507	2.2778503543138493	3.116503667235374	2.512657165527344	2.707908558004048	-0.2348068112134949	4	2	5	5	1	9	6	0	5	11	11	5	0.7444444444444445	0.12626262626262627	0.398989898989899	0.9444444444444444	1.6906321096420243	3.5018000555038356	2.2364293136596727	2.299466110229491	-1.8111679458618113	2.737408037185673	3.051244090398153	3.2775756374994884		7	9	15	1	0	1	16	1	1.0140866557674948	3.082975657326835	1.6516417853037493	3.0971879056294744	3.406240091323866	-1.4313338720230857		2.512657165527344	2.640652210712439	3.7840101146697975	0	2	4	0	4	1	1	4	1	9	0	0	5	0	1	0		3.5018000555038356	1.6906321096420243		2.794098100662236	3.400837087631232	0.0057541656494208	2.0241233658790563	2.737408037185673	3.051244090398153			3.2518427467346127		3.406240091323866	
sub-01	ses-008	run-2	18	21	2	13	39	15	0.32820512820512826	1.0142130013471462	1.8819847922854942	2.7478186798095754	2.1624034452438394	2.494927821526162	-0.2804186529583452	6	3	2	7	2	9	9	1	8	12	11	8	0.6166666666666667	0.11666666666666667	0.04848484848484849	0.7416666666666667	1.6470254691441848	2.6880636246999075	1.5224594593048089	1.8406376647949212	-1.0410381555557227	3.1115474987030183	2.5690450816684347	2.7842841815948507	3.30113390922547	7	11	21	0	1	1	13	0	0.924327381536227	2.2759719671521847	1.6312656810066912	2.7478186798095754		-0.6447062861454935	2.5481380271911576	1.7766688632965213	2.494927821526162		2	2	4	1	2	1	0	6	2	9	0	0	9	1	0	0	2.3100115203857428	2.7319294118881174	1.3155324435234057	2.6003320503234866	1.5224594593048089	2.803002986907956		1.680243444442749	3.1115474987030183	2.5690450816684347			2.7842841815948507	3.30113390922547		
sub-01	ses-008	run-3	13	18	2	14	31	16	0.29435483870967744	0.9468051488435216	2.139232265032253	2.4736450375451007	3.3876120567321806	2.7264821985789736	-1.2483797916999277	6	0	1	6	2	7	6	3	8	7	7	9	0.625	-0.125	0.01785714285714285	0.5416666666666666	2.3095858637491844		0.7262420463562052	2.204377036094663		2.9835635757446326	2.321251606260025	2.4762353690465395	2.4841033554077114	5	8	17	1	2	0	14	0	1.2134079542351857	2.940585821151734	1.6383862924575774	2.485553215812236	2.271206007003798	-1.3021995286941568	3.3876120567321806		2.7264821985789736		4	0	2	0	0	1	1	5	2	7	0	0	5	3	1	0	2.6836947727203366		1.56136804580688			3.968150014877324	0.7262420463562052	1.8516224403381307	2.9835635757446326	2.321251606260025			2.5172412414550878	2.4841033554077114	2.271206007003798	
sub-01	ses-008	run-4	19	14	0	14	33	14	0.5757575757575758	1.9937950968853646	1.8932909197556385	2.9963548762457717		2.5878564085279194		7	2	2	8	1	7	6	0	8	9	8	8	0.875	0.2222222222222222	0.25	1.0	1.8095080620902013	1.3533064079284642	2.782068934440616	1.8794025444984452	0.4562016541617371	1.7490917778015105	3.0001717540196	3.1997790352503492		8	11	13	1	0	0	13	1	1.3720157914437328	2.6579396724700963	1.3371827359633057	3.0373521137237556	2.463390789031984	-1.3207569365067906			2.6244042888054486	2.1127339649200394	2	1	5	1	2	3	0	5	1	6	0	1	6	0	0	0	2.3906544399261516	2.6706298351287785	1.5770495109558211	0.0359829807281499	2.782068934440616	2.749146931966152		1.3575559120178213	1.7490917778015105	3.089635248184203		2.463390789031984	3.1997790352503492			
sub-01	ses-008	run-5	26	14	1	19	40	20	0.6	2.0301740933590406	1.6197840114740214	2.2224691697529413	3.130200977325444	2.1341832160949736	-1.5104169658514226	11	1	3	11	1	7	5	1	12	8	8	12	0.8666666666666666	0.075	0.325	0.8666666666666666	1.5522745184464846	1.7669670581817627	2.3302439943949387	1.4801514140042407	-0.21469253973527813	2.197034940719618	2.1979072107587574	2.421635206222535	1.424006929397585	12	14	14	0	1	0	18	1	1.5746435181324867	2.09409753481547	1.213229562895637	2.2224691697529413		-0.8808679719198327	3.130200977325444		2.136302230623036	2.096040954589853	4	1	7	0	2	5	1	6	1	7	0	0	5	1	0	0	2.2374829030036913	1.7669670581817627	1.1607268701280808		2.582077980041504	1.8496231575012203	1.826576023101808	1.1722582944234243	2.197034940719618	2.1979072107587574			2.421635206222535	1.424006929397585		
sub-01	ses-008	run-6	22	18	1	19	40	20	0.5	1.770514973806547	1.3802467484907666	2.045206210348341	2.5641258716583195	1.8697134484742868	-1.183879123167553	10	0	0	12	4	6	6	2	14	6	6	14	0.6642857142857143	-0.05	-0.05	0.807142857142857	1.3440646619796746			1.41039848725001		2.33757044315338	2.0416550668080666	1.8040607690811132	2.194567499160769	3	19	18	0	1	0	17	2	1.8972572065968407	1.9846632099151644	1.2848125703711248	2.045206210348341		-0.6998506395440396	2.5641258716583195		1.8551811588511802	1.9932379102706932	1	0	9	0	0	2	0	10	4	6	0	0	6	2	0	0	1.4754568481445318		1.3294655301835792			2.2392663908004806		1.2446249065399158	2.33757044315338	2.0416550668080666			1.8040607690811132	2.194567499160769		
sub-01	ses-009	run-1	14	25	0	20	39	20	0.358974358974359	1.5987623468287353	2.1710453530720346	2.8599554580688467		2.7747675943374657		4	1	4	5	2	12	10	1	6	13	14	6	0.6666666666666666	0.07692307692307693	0.2857142857142857	0.8333333333333334	1.4182458615303055	2.7562659835815424	2.679577188491823	2.249415351867685	-1.3380201220512369	3.4065338754653993	2.780390225251517	3.0452322053909255	0.8688139438629037	6	8	25	0	0	0	20	0	1.1365214973162363	2.9551489464441922	1.5829676580429162	2.8599554580688467		-1.372181288401276			2.7747675943374657		0	1	4	0	3	2	1	3	2	12	0	0	10	1	0	0		2.7562659835815424	1.4182458615303055		2.8289672533671015	3.243862967491154	2.2314069938659884	1.586450274785373	3.4065338754653993	2.780390225251517			3.0452322053909255	0.8688139438629037		
sub-01	ses-009	run-2	16	21	0	19	37	19	0.43243243243243246	1.7677467867404597	2.181166951060299	2.1438982886359828		2.140461146706027		7	1	2	6	0	11	8	2	7	12	10	8	1.0	0.08333333333333333	0.2	0.75	1.93335374014719	3.6553071022033663	2.1109555006027207	2.247996155420941	-1.7219533620561762		2.198245500217784	1.9924864399433195	2.450636019706728	5	11	21	0	0	0	19	0	1.4057417799335248	2.9774856109619163	1.8192039238322912	2.1438982886359828		-1.158281687129625			2.140461146706027		1	1	6	0	1	2	1	4	0	11	0	0	8	2	0	0	3.5070390605926605	3.6553071022033663	1.6710728534062784		1.756405935287475	2.9843379783630404	2.4655050659179665	1.8798252439498917		2.198245500217784			1.9924864399433195	2.450636019706728		
sub-01	ses-009	run-3	21	19	0	20	40	20	0.525	2.0226707624832683	1.9368503952026408	2.1152604625099567		1.8727128014564527		9	1	3	8	1	9	7	2	10	10	10	10	0.9	0.1	0.3	0.8	2.1402369912465438	1.915127830505384	2.3514981842041003	1.5552628743648595	0.22510916074115972	2.392172832489017	2.1667970879872636	1.7464499078478062	3.035726404190072	6	15	19	0	0	0	19	1	1.6413246205756793	2.471790863672894	1.7228742078145391	2.1152604625099567		-0.7489166558583549			1.8263199555246463	2.754176874160777	1	1	8	0	3	1	0	7	1	9	0	0	7	2	0	0	2.6018330097198543	1.915127830505384	2.0825374889373798		2.3514981842041003	3.2592897891998263		1.3118304579598643	2.392172832489017	2.1667970879872636			1.7464499078478062	3.035726404190072		
sub-01	ses-009	run-4	18	10	1	15	28	16	0.5803571428571429	1.900226901153116	1.8565896987915014	2.1781323299408	3.5086420726776133	2.0357268892924014	-1.652052373886112	7	3	1	7	0	3	6	1	7	6	7	8	0.9375	0.4375	0.08035714285714285	0.8125	1.3225027438572445	2.7565093676249184	1.7313870239257767	2.022882892063682	-1.4340066237676738		2.1768020566304545	2.0710648584365905	2.8245279788970947	7	11	10	0	1	0	15	0	1.5908518620223906	2.3370044762747595	1.5508712040294277	2.1781323299408		-0.7861332722453318	3.5086420726776133		2.0357268892924014		2	2	5	1	0	3	1	4	0	3	0	0	6	1	0	0	1.3223330068588233	3.5918385696411104	1.3225706386566132	1.0858509635925344		2.1768960603078162	1.7313870239257767	1.907373015880582		2.1768020566304545			2.0710648584365905	2.8245279788970947		
sub-01	ses-009	run-5	19	19	2	15	38	17	0.38235294117647056	1.1868314327558185	1.6746279460505422	2.032515248248457	1.1812655973434476	2.217957934697468	0.4933623487070946	8	1	1	9	4	6	7	2	12	7	8	11	0.5490196078431372	0.02521008403361344	0.00735294117647059	0.7005347593582888	1.5135536253452262	2.7617440128326507	1.671878128051759	1.6973199812571202	-1.2481903874874245	1.9399876070022692	2.151108080546068	2.2416386876787486	1.1298599958419793	5	14	18	1	0	2	13	2	0.8507932923839954	2.2325162220001227	1.4753821332114063	2.041051588588296	1.8788611221313545	-0.7571340887887164		1.1812655973434476	2.3192245094592745	1.5597251987457241	1	1	7	0	0	3	1	6	4	6	0	0	6	2	1	0	1.965023002624492	2.7617440128326507	1.449058000019617			2.1452713648478237	1.671878128051759	1.4733442894617685	1.9399876070022692	2.151108080546068			2.302101615269981	1.1298599958419793	1.8788611221313545	
sub-01	ses-009	run-6	23	17	0	20	40	20	0.575	2.149082410812847	1.4304744620945127	2.05905699168935		1.6673290295600904		9	1	1	12	5	5	5	2	14	6	6	14	0.6428571428571429	0.16666666666666666	0.16666666666666666	0.8571428571428571	1.2405121707916196	3.038178977966309	2.387497816085812	1.359218858083091	-1.7976668071746895	1.8070215988159202	1.8506423091888435	2.5995300769806016	1.8589994668960654	5	18	17	0	0	0	20	0	1.8343026376849805	2.2716867446899394	1.196804383595783	2.05905699168935		-1.0748823610941565			1.6673290295600904		1	1	8	0	1	2	0	10	5	5	0	0	5	2	0	0	1.852283992767326	3.038178977966309	1.1640406930446563		2.387497816085812	2.0402364683151246		1.2230153360366842	1.8070215988159202	1.8506423091888435			2.5995300769806016	1.8589994668960654		
sub-01	ses-010	run-1	14	25	0	20	39	20	0.358974358974359	1.5987623468287353	1.2836080196925599	2.2907566989898673		2.2692300434112562		6	2	0	6	0	11	14	0	6	13	14	6	1.0	0.15384615384615385	0.0	1.0	1.079682593345647	2.4354130411148063		1.103598438898724	-1.3557304477691592		2.409646385366264	2.197343373979842		2	12	24	1	0	0	19	1	1.457561761166699	2.4354130411148063	1.0916405161221856	2.2531724735101055	3.1927781105041504	-1.3437725249926207			2.258649363266796	2.4702629661560067	0	2	6	0	0	0	0	6	0	11	0	0	13	0	1	0		2.4354130411148063	1.079682593345647					1.103598438898724		2.409646385366264			2.1207714711702796		3.1927781105041504	
sub-01	ses-010	run-2	20	20	0	20	40	20	0.5	1.9599639845400545	1.524220542907718	2.293206490516664		2.113037608623504		8	3	1	8	0	9	11	0	8	12	12	8	1.0	0.25	0.08333333333333333	1.0	1.1818303954601346	2.7993825499216762	3.8288567924499546	1.1003454065322877	-1.6175521544615417		2.2005699782901362	2.3690000005201863		4	16	18	2	0	0	20	0	1.7066168814042548	3.056751110553746	1.1410879009962112	2.1929311148325605	3.195684871673592	-1.9156632095575348			2.113037608623504		0	3	8	0	1	0	0	8	0	7	0	2	11	0	0	0		2.7993825499216762	1.1818303954601346		3.8288567924499546			1.1003454065322877		1.9162514373234347		3.195684871673592	2.3690000005201863			
sub-01	ses-010	run-3	22	18	1	19	40	20	0.5	1.770514973806547	1.3052635921131492	1.7770269277360737	2.562528972625728	1.9759635855022228	-1.2572653805125786	10	1	1	10	0	9	9	0	10	10	10	10	0.95	0.05	0.05	0.95	1.3124380598068235	2.226068887710568	1.880751008987428	1.1484598531723051	-0.9136308279037444		1.8297220696343368	1.7243317858378104		3	19	18	0	1	0	19	0	1.8972572065968407	1.7672803306579574	1.232313580763969	1.7770269277360737		-0.5349667498939885	2.562528972625728		1.9759635855022228		2	0	8	1	1	0	0	10	0	9	0	0	9	0	0	0	1.7105449914932223		1.2129113268852239	2.226068887710568	1.880751008987428			1.1484598531723051		1.8297220696343368			1.7243317858378104			
sub-01	ses-010	run-4	22	18	0	20	40	20	0.55	2.0856253313951285	1.6551472117684118	1.87560126834446		1.9666561555862407		8	2	3	9	2	8	7	1	10	10	10	10	0.8	0.2	0.3	0.9	1.6944667589664455	2.474488005638129	1.7663563855489102	1.4010510465833894	-0.7800212466716836	1.8089785051345828	1.8892632186412892	1.695354713712425	3.1612770748138246	7	15	17	1	0	0	20	0	1.6413246205756793	2.069793867383685	1.4616454391479508	1.8807501619002445	1.7880700778961227	-0.6081484282357343			1.9666561555862407		1	2	7	0	3	1	0	8	2	7	0	1	7	1	0	0	2.3100549697875863	2.474488005638129	1.606525585991997		1.7663563855489102	1.93045693397522		1.3348753106594105	1.8089785051345828	1.9037193816048845		1.7880700778961227	1.695354713712425	3.1612770748138246		
sub-01	ses-010	run-5	20	18	1	19	38	20	0.4763157894736842	1.7108654393273135	1.7961155838966356	2.461655215687222	3.647403020858775	1.958812733198472	-1.8512874369621393	9	0	1	10	3	8	6	1	12	8	7	11	0.7	-0.05	0.09285714285714285	0.859090909090909	1.8834272935655365		3.659231948852536	1.531223408699035		2.7055906645456904	2.2855455100536366	2.4644241221745795	3.122113075256351	7	13	17	1	1	0	19	0	1.5532397326686909	2.5411368233816924	1.3949503010969897	2.4661229941424203	2.385702981948853	-1.1461865222847027	3.647403020858775		1.958812733198472		3	0	6	0	1	3	0	7	3	7	0	1	6	1	0	0	2.4234006150563516		1.6134406328201287		3.659231948852536	2.286174656550086		1.2076728739057276	2.7055906645456904	2.2712372997828916		2.385702981948853	2.4644241221745795	3.122113075256351		
sub-01	ses-010	run-6	16	21	0	18	37	18	0.43243243243243246	1.7443211009431883	1.8953250867128368	2.3948161243257076		2.2304272625181443		8	0	1	7	6	6	5	4	14	6	6	11	0.5714285714285714	0.0	0.16666666666666666	0.6363636363636364	2.052090090513227		1.806671171188356	1.7288299274444598		2.0540149227778124	2.651036453247073	2.5934292621612527	2.27342101097107	8	8	20	1	0	0	16	2	1.1294697751786653	2.2435967242717747	1.547053449153899	2.5047778291702274	0.1955820274353072	-0.6965432751178757			2.1093829667568214	3.198781628608728	5	0	3	0	1	2	0	5	5	6	1	0	5	4	0	0	2.37816128349304		1.5086381022135384		1.806671171188356	2.125648102760321		1.5701026573181154	2.4257015018463135	2.651036453247073	0.1955820274353072		2.5934292621612527	2.27342101097107		
sub-01	ses-011	run-1	14	25	1	18	39	19	0.30634278002699056	1.2586546209269507	1.9020178910664158	2.188343273925781	2.762506942749013	2.200624114672347	-0.8604890516825974	5	1	3	5	1	12	11	1	6	13	14	6	0.7807017543859649	0.02429149797570851	0.16165413533834586	0.7807017543859649	1.6440582485198987	2.717787981033325	2.6130266793568873	1.570218242645268	-1.0737297325134265	2.12735304832458	2.3952266144752508	2.0814693988453246	0.9423460388183572	5	9	24	1	0	1	17	1	0.8835403412621404	2.66608822441101	1.4775343725416414	2.14397036910057	3.253292989730838	-1.1885538518693686		2.762506942749013	2.196296768749466	2.274188995361328	1	1	4	0	2	1	1	4	1	11	0	1	11	1	0	0	3.1568341159820648	2.717787981033325	1.2658642816543573		2.3238685369491487	2.808081951141361	3.191342964172364	1.2607523155212448	2.12735304832458	2.3172205803611066		3.253292989730838	2.0814693988453246	0.9423460388183572		
sub-01	ses-011	run-2	16	24	0	19	40	19	0.4	1.684584407717029	1.8050971370935476	2.1720055103302		2.052923265758315		7	2	2	5	1	10	10	3	8	12	12	8	0.875	0.16666666666666666	0.16666666666666666	0.625	1.4028522600446496	2.7169035196304283	2.7629481172561654	1.6203770198822056	-1.3140512595857787	1.6915381145477113	2.068805472373965	2.060656310081481	3.047325436274207	9	7	24	0	0	0	18	1	1.0033422197793485	2.345424905353124	1.1103900064740924	2.1720055103302		-1.2350348988790316			2.0567578326331257	1.983901062011725	3	2	4	0	2	2	0	3	1	10	0	0	10	3	0	0	1.693277295430505	2.7169035196304283	1.1850334835052578		2.7629481172561654	2.5346444940567068		1.010865370432538	1.6915381145477113	2.068805472373965			2.060656310081481	3.047325436274207		
sub-01	ses-011	run-3	20	18	1	19	38	20	0.4763157894736842	1.7108654393273135	1.9076956720352194	2.492572975158694	2.5087889575958258	2.1585841269242128	-0.6010932855606064	7	3	3	7	3	7	5	3	10	10	8	10	0.6499999999999999	0.25	0.325	0.6499999999999999	1.7785457474844821	2.1963270537058577	2.6840029462178543	1.5804433155059823	-0.41778130622137555	2.559417994817096	3.0159073311942004	1.9371828174591073	2.130264720916754	11	9	18	0	1	0	19	0	1.243466484362063	2.1553825612501707	1.6049672518836124	2.492572975158694		-0.5504153093665582	2.5087889575958258		2.1585841269242128		3	3	4	0	2	3	1	4	3	7	0	0	5	3	0	0	1.9200806903839123	2.1963270537058577	1.6723945403099094		2.86758044242859	1.874941352208462	2.316847953796384	1.3595697879791224	2.559417994817096	3.0159073311942004			1.9371828174591073	2.130264720916754		
sub-01	ses-011	run-4	21	18	0	20	39	20	0.5384615384615384	2.0565225998296937	1.622547693706697	1.9585642099380491		1.7113019561767586		8	3	2	8	2	7	7	2	10	10	9	10	0.8	0.3	0.2222222222222222	0.8	1.6500859093666147	2.580513725280762	2.122182030677792	1.1108636319637313	-0.9304278159141472	1.047939567565919	1.9069610118865958	1.9640542043958393	3.030585064888001	10	11	18	0	0	0	19	1	1.3832054200322565	2.1014267349243196	1.1872031107815852	1.9585642099380491		-0.9142236241427344			1.6942485357585715	2.0353169441223145	4	3	4	0	2	1	0	7	2	7	0	0	7	2	0	0	1.8916332674026606	2.580513725280762	1.4085385513305688		2.122182030677792	1.4618290424346867		1.0607257161821662	1.047939567565919	1.9069610118865958			1.9640542043958393	3.030585064888001		
sub-01	ses-011	run-5	24	15	0	19	39	19	0.6153846153846154	2.2313127429740223	1.5810031251112653	1.906573014577229		1.945019063447652		9	2	1	12	3	5	7	0	12	7	8	12	0.75	0.2857142857142857	0.125	1.0	1.2438763512505417	2.5565509605407755	3.8054040527343744	1.4858901556332968	-1.3126746092902337	1.74496469497681	2.154279251098629	1.7989006968906942		7	17	15	0	0	0	18	1	1.7765524681185896	2.263788119724821	1.2998563626233304	1.906573014577229		-0.9639317571014907			1.9636026779810598	1.6105140018463118	3	2	6	0	1	1	0	11	3	5	0	0	7	0	0	0	1.5480189673105897	2.5565509605407755	1.0918050432205177		3.8054040527343744	2.283953962326052		1.41333890047941	1.74496469497681	2.154279251098629			1.7989006968906942			
sub-01	ses-011	run-6	21	15	0	18	36	18	0.5833333333333334	2.124934219303482	1.6081740115937753	2.0100464763641335		1.9477762481901426		11	2	0	8	2	3	6	4	13	5	6	12	0.8461538461538461	0.4	0.0	0.6666666666666666	1.5823735679279716	2.1145545148849507		1.5170544958114611	-0.5321809469569792	3.4403089046478215	1.559464696248373	2.1139943869908655	1.4769297313690117	8	13	15	0	0	0	18	0	1.5590154072160263	2.017484617233281	1.3562905619694638	2.0100464763641335		-0.6611940552638171			1.9477762481901426		2	2	9	0	0	4	0	4	2	3	0	0	6	4	0	0	2.061559505462654	2.1145545148849507	1.4758878040313754			1.9469122242927597		1.0871967673301626	3.4403089046478215	1.559464696248373			2.1139943869908655	1.4769297313690117		
sub-01	ses-012	run-1	15	25	2	18	40	20	0.275	0.9629122015802252	1.7501479784647624	2.3868519886016877	2.6027060079574618	2.1142257436116534	-0.8525580294926993	5	3	1	6	1	11	13	0	6	14	14	6	0.7333333333333334	0.11428571428571427	-0.02857142857142858	0.9	1.2419774208068843	3.076130396525064	3.3840041160583496	1.2383228778839122	-1.8341529757181796	1.914839944839457	2.5838651371002217	2.2564571740077146		4	11	25	0	2	0	18	0	1.3622038584975762	3.1530988264083852	1.2399840337579904	2.3868519886016877		-1.9131147926503949	2.6027060079574618		2.1142257436116534		0	3	5	0	1	0	0	6	1	11	0	0	13	0	0	0		3.076130396525064	1.2419774208068843		3.3840041160583496			1.2383228778839122	1.914839944839457	2.5838651371002217			2.2564571740077146			
sub-01	ses-012	run-2	17	21	1	15	38	16	0.3848684210526316	1.4018076920763751	1.9874087322459526	2.363672757375808	2.8757669925689697	2.112527965545657	-0.8883582603230171	5	1	4	7	3	10	8	0	8	11	12	7	0.5625	0.02840909090909091	0.2708333333333333	0.9375	1.798205360412601	2.946842012405396	2.949294958114619	1.4358428287506169	-1.148636651992795	2.39934224446615	2.4504706420898428	2.2417993438243857		4	13	20	1	1	0	15	0	1.456007615550288	2.949294958114619	1.691443739670978	2.2829692482948305	3.9777429389953616	-1.2578512184436408	2.8757669925689697		2.112527965545657		0	0	5	1	4	0	0	7	3	10	0	0	7	0	1	0			1.798205360412601	2.946842012405396	2.949294958114619			1.4358428287506169	2.39934224446615	2.4504706420898428			1.9938074016571032		3.9777429389953616	
sub-01	ses-012	run-3	19	21	0	20	40	20	0.475	1.8972572065968407	1.6640889719912884	1.840909638177781		1.9359900708198583		8	0	3	8	2	10	7	2	10	10	10	10	0.8	0.0	0.3	0.8	1.2905668926239016		2.8030416997273755	1.6105037784576424		2.4478815555572453	1.6388781700134303	1.7756426239013672	2.472529611587518	6	13	21	0	0	0	20	0	1.506201794370175	2.4389035177230824	1.306482258576614	1.840909638177781		-1.1324212591464684			1.9359900708198583		1	0	7	0	3	2	0	6	2	10	0	0	7	2	0	0	1.814172983169556		1.215766022545951		2.8030416997273755	2.2050615119934065		1.4123178672790544	2.4478815555572453	1.6388781700134303			1.7756426239013672	2.472529611587518		
sub-01	ses-012	run-4	15	25	3	15	40	18	0.20833333333333334	0.648782202137326	2.0503670959472684	2.0134903842926053	3.037066043217976	1.9819754575093569	-0.9866989472707077	7	0	1	7	3	10	9	3	10	10	10	10	0.5333333333333333	-0.16666666666666666	-0.06666666666666665	0.5333333333333333	2.0541687543051586		2.862002048492428	1.9306175872257845		2.159321425755818	1.9977110567092957	2.022191076278688	1.8941550254821777	6	9	23	2	3	0	14	1	1.159090798695088	2.7475929959615093	1.585549829271108	2.0188301040815304	1.9520836067199667	-1.1620431666904012	3.037066043217976		1.9038531262533986	3.0756880950927723	2	0	5	0	1	3	0	4	2	10	1	0	9	2	0	1	3.3376130104064856		1.5407910518646275		2.862002048492428	2.3161099688212183		1.6414983010292092	1.868500571250916	1.9977110567092957	2.7409631347656216		2.022191076278688	2.2596304988861107		1.163204078674312
sub-01	ses-012	run-5	14	24	1	16	38	17	0.3095975232198142	1.2286883309899757	1.7540191977364685	2.013749262094501	2.9987281417846816	2.2078942328691475	-1.244708944048213	4	0	0	10	7	7	8	2	11	7	8	12	0.3048128342245989	-0.058823529411764705	-0.058823529411764705	0.7745098039215687	1.1691583824157732			1.9879635238647466		2.0884864929744245	2.03108554158892	2.0117874622344987	1.699339175224308	5	9	22	2	1	0	16	0	1.1730124601554386	2.101492723464966	1.5609783501095251	1.9932336425781292	2.2394210767745903	-0.540514373355441	2.9987281417846816		2.2078942328691475		1	0	3	0	0	4	0	6	5	7	2	0	8	2	0	0	1.4061331844329883		1.090166781743368			2.2753326082229606		1.7963841342926037	2.028112659454358	2.03108554158892	2.2394210767745903		2.0117874622344987	1.699339175224308		
sub-01	ses-012	run-6	15	17	2	15	32	17	0.35110294117647056	1.1084190200227062	2.3795802173614504	2.0291318433425025	3.399477519989019	2.2881491419474305	-1.0198973026275686	5	0	1	9	7	5	3	2	12	5	4	11	0.2990196078431373	-0.11764705882352941	0.1323529411764706	0.7005347593582888	1.6607793960571253		2.4005380535125767	2.776585358513728		1.6292163494655032	2.31898519897461	1.7755209732055686	3.084618988037132	7	8	16	1	0	2	15	0	0.5123416825597368	2.537999729428971	2.24096314430237	1.9171655184030527	3.8205930423737016	-0.29703658512660125		3.399477519989019	2.2881491419474305		3	0	2	0	1	3	0	6	7	5	0	0	3	1	0	1	1.854688011805213		1.3699164724349941		2.4005380535125767	3.267132005691527		2.5313120349248286	1.6292163494655032	2.31898519897461			1.7755209732055686	2.3486449337005624		3.8205930423737016
sub-01	ses-013	run-1	11	29	0	20	40	20	0.275	1.3622038584975762	1.3027230340784295	1.823357304869026		1.7349783105850247		6	0	0	5	0	14	14	1	6	14	14	6	1.0	0.0	0.0	0.8333333333333334	1.2590526183446258			1.3551275329589942			1.7023528071812197	1.9215233864103045	2.1430951309204147	0	11	28	1	0	0	20	0	1.3622038584975762		1.3027230340784295	1.8226363832609984	1.8435431098937995				1.7349783105850247		0	0	6	0	0	0	0	5	0	13	0	1	14	1	0	0			1.2590526183446258					1.3551275329589942		1.6914920146648673		1.8435431098937995	1.9215233864103045	2.1430951309204147		
sub-01	ses-013	run-2	14	25	0	20	39	20	0.358974358974359	1.5987623468287353	1.272504904610772	1.5415290657043457		1.4322247695922876		8	0	0	6	0	11	12	2	8	11	12	8	1.0	0.0	0.0	0.75	1.1582078850269344			1.4249009307225553			1.4412766924771396	1.661152421633403	1.375176982879637	0	14	25	0	0	0	20	0	1.5987623468287353		1.272504904610772	1.5415290657043457					1.4322247695922876		0	0	8	0	0	0	0	6	0	11	0	0	12	2	0	0			1.1582078850269344					1.4249009307225553		1.4412766924771396			1.661152421633403	1.375176982879637		
sub-01	ses-013	run-3	21	19	0	20	40	20	0.525	2.0226707624832683	1.4830896822611535	1.4728555252677522		1.404945398330687		10	1	1	9	0	9	9	1	10	10	10	10	1.0	0.1	0.1	0.9	1.3696743936538733	3.099965162277215	2.949905147552492	1.2664743423461982	-1.7302907686233415		1.463648100958929	1.415304761462745	2.0736792182922272	3	18	19	0	0	0	20	0	1.8343026376849805	2.5140098444620733	1.3112696552276668	1.4728555252677522		-1.2027401892344065			1.404945398330687		0	1	10	0	1	1	0	8	0	9	0	0	9	1	0	0		3.099965162277215	1.3696743936538733		2.949905147552492	1.4921592235565129		1.2382637321949088		1.463648100958929			1.415304761462745	2.0736792182922272		
sub-01	ses-013	run-4	17	23	0	20	40	20	0.425	1.770845558267262	1.4075455194361102	1.37303171987119		1.7324953050613405		8	0	0	9	2	10	10	1	10	10	10	10	0.8	0.0	0.0	0.9	1.4235951220989316			1.3932792059580468		1.7801945734024187	1.1949837388992322	1.414837785720822	1.9211251640319915	5	12	23	0	0	0	20	0	1.4355634718320136	2.057245910644532	1.1368370230992677	1.37303171987119		-0.9204088875452645			1.7324953050613405		2	0	6	0	0	3	0	6	2	10	0	0	10	1	0	0	2.5549761676788414		1.0464681069056283			1.725425739288326		1.2272059392929073	1.7801945734024187	1.1949837388992322			1.414837785720822	1.9211251640319915		
sub-01	ses-013	run-5	21	19	0	20	40	20	0.525	2.0226707624832683	1.5892861270904532	1.83421223339282		1.6990563821792612		10	0	1	10	2	8	7	2	12	8	8	12	0.8333333333333334	0.0	0.125	0.8333333333333334	1.3950585165023828		1.822246847152712	1.7602176656722974		1.21550597190857	1.717420104742059	2.0490021256038133	2.168322386741636	2	19	18	1	0	0	20	0	1.8972572065968407	2.228813414573665	1.521967465250115	1.832808754709036	1.8594748497009304	-0.7068459493235499			1.6990563821792612		0	0	10	0	0	2	1	8	2	8	0	0	6	2	1	0			1.3950585165023828			2.228813414573665	1.822246847152712	1.6430687284469556	1.21550597190857	1.717420104742059			2.0805900049209605	2.168322386741636	1.8594748497009304	
sub-01	ses-013	run-6	21	19	0	20	40	20	0.525	2.0226707624832683	1.5328829156784791	1.667925800524264		1.6556250486373891		11	1	0	9	3	5	6	5	14	6	6	14	0.7857142857142857	0.16666666666666666	0.0	0.6428571428571429	1.4937798300656444	3.088842926025391		1.4077911302778428	-1.5950630959597467	1.6555704212188758	1.362973987579356	2.1235333379109718	1.4335617961883558	6	15	18	1	0	0	20	0	1.6413246205756793	2.1866488409042395	1.2713765455881751	1.6319549549950538	2.3154010200500466	-0.9152722953160644			1.6556250486373891		3	1	8	0	0	2	0	7	3	5	0	0	5	5	1	0	1.8994210211436002	3.088842926025391	1.3416643834114108			2.1663935279846225		1.1910475880759057	1.6555704212188758	1.362973987579356			2.0851598014831567	1.4335617961883558	2.3154010200500466	
sub-01	ses-014	run-1	17	27	0	10	44	10	0.38636363636363635	1.3560442718770094	2.241224090912767	2.6747586041909677		2.06641345691681		3	0	2	4	6	9	5	3	9	9	7	7	0.3333333333333333	0.0	0.2857142857142857	0.5714285714285714	2.5658382352193216		2.7836318969726648	2.729486944675454		2.3765284840265903	2.6865993997785753	2.643935884475712	3.187693913777671	6	11	27	0	0	0	10	0	0.9703638767553912	3.093611912727361	1.7762852790138972	2.6747586041909677		-1.3173266337134637			2.06641345691681		1	0	2	0	2	2	0	2	6	9	0	0	5	3	0	0	3.703101902008057		1.997206401824954		2.7836318969726648	3.043009462356572		2.4159644269943357	2.3765284840265903	2.6865993997785753			2.643935884475712	3.187693913777671		
sub-01	ses-014	run-2	12	25	2	17	37	19	0.2190611664295875	0.7964792065273402	1.8401441677411363	2.1330852588653606	2.1801646423339847	1.799131991442513	-0.34002047459284834	5	1	2	2	1	10	9	4	6	11	11	6	0.7280701754385965	-0.014354066985645925	0.07655502392344499	0.22807017543859648	1.9700556545257484	2.958752183914185	2.0474595403671287	1.5310146427154478	-0.9886965293884364	3.269318094253549	2.16464911651612	1.8977373006608775	2.4852598500251766	4	8	25	0	1	1	17	0	0.8348202087613779	2.6380603361129786	1.4411860835552153	2.1330852588653606		-1.1968742525577634	2.564535140991211	1.7957941436767584	1.799131991442513		1	1	4	0	2	0	0	2	1	10	0	0	9	4	0	0	3.498570079803472	2.958752183914185	1.5879270482063177		2.0474595403671287			1.5310146427154478	3.269318094253549	2.16464911651612			1.8977373006608775	2.4852598500251766		
sub-01	ses-014	run-3	12	17	0	15	29	15	0.41379310344827586	1.616116255888516	2.309484639962518	2.213373207765469		1.7231552950541216		3	0	0	8	4	7	5	1	7	7	5	9	0.42857142857142855	0.0	0.0	0.8888888888888888	2.2227540493011446			2.351528681516654		2.406904511451719	2.3632999025072428	1.878991619110107	2.0616690731048664	8	4	17	0	0	0	15	0	0.7442526538698075	2.3790508151054377	2.1703522896766785	2.213373207765469		-0.20869852542875922			1.7231552950541216		3	0	0	0	0	4	0	4	4	7	0	0	5	1	0	0	2.2227540493011446					2.5327050733566296		2.1703522896766785	2.406904511451719	2.3632999025072428			1.878991619110107	2.0616690731048664		
sub-01	ses-014	run-4	19	13	1	17	32	18	0.5381944444444444	1.8304209273518384	1.96103755699961	2.0424618588961114	3.684532976150507	1.8592190114189608	-1.723495419150897	8	2	2	7	2	6	3	2	10	8	5	9	0.7444444444444445	0.19444444444444445	0.34444444444444444	0.7222222222222222	1.7905914223194115	2.313466825485234	2.4443048858642626	1.9170626831054725	-0.5228754031658225	2.590741357803367	1.9770311133066816	1.7272175852457583	2.163341007232674	8	11	13	0	0	1	17	0	1.1909687527013253	2.462844046354298	1.5960873829234734	2.0424618588961114		-0.8667566634308248		3.684532976150507	1.8592190114189608		3	1	5	1	2	2	0	5	2	6	0	0	3	2	0	0	1.9623259607950843	3.1027928256988524	1.687550699234008	1.5241408252716155	2.4443048858642626	2.9121859455108776		1.5190133781433104	2.590741357803367	1.9770311133066816			1.7272175852457583	2.163341007232674		
sub-01	ses-014	run-5	13	18	2	14	31	16	0.29435483870967744	0.9468051488435216	1.6034064857776396	2.1993515014648417	3.698467111587526	2.295279274668015	-2.0950606258098863	3	1	1	8	5	6	3	4	8	7	4	12	0.25	0.01785714285714285	0.125	0.5416666666666666	1.7235750834147343	1.6581411838531466	3.02643610954285	1.3736227214336392	0.06543389956158774	1.7338430957794113	2.5814562749862717	2.256617835362749	2.1651300978660544	2	11	17	1	1	1	13	1	1.1618311838873552	2.342288646697998	1.4690642747012106	2.1397318133185865	3.212886199951185	-0.8732243719967876	3.940732192993167	3.4562020301818848	2.3196916792942956	1.9779180145263664	0	1	3	0	1	0	0	8	5	5	0	1	3	4	0	0		1.6581411838531466	1.7235750834147343		3.02643610954285			1.3736227214336392	1.7338430957794113	2.4551702899932892		3.212886199951185	2.256617835362749	2.1651300978660544		
sub-01	ses-014	run-6	17	15	1	14	32	15	0.46458333333333335	1.5794983587771372	2.2630898116616653	2.389805484135945	3.909572858810428	1.8468946668079929	-1.6464830471487626	6	1	3	7	4	5	3	3	10	6	6	10	0.5333333333333333	0.09999999999999999	0.43333333333333335	0.6333333333333333	2.4626010831197136	3.365756034851074	2.9357863299051865	1.6462578964233419	-0.9031549517313606	2.8717019486427304	2.1842125511169437	1.8737849934895792	2.6059522438049307	5	12	15	0	0	1	14	0	1.1824465820796497	3.228113939285275	1.8609964251518278	2.389805484135945		-1.367117514133447		3.909572858810428	1.8468946668079929		2	1	4	0	2	0	1	7	4	5	0	0	3	3	0	0	2.8646608543396006	3.365756034851074	2.2615711975097703		3.52274597644805		1.76186703681946	1.6462578964233419	2.8717019486427304	2.1842125511169437			1.8737849934895792	2.6059522438049307		
sub-01	ses-015	run-1	9	24	1	18	33	19	0.2200956937799043	1.0152709120550327	1.919579734802244	2.2332753002643595	1.7654200935363633	2.0554536655214144	0.15415964126588078	5	0	0	4	0	13	9	1	5	13	9	5	0.9473684210526316	-0.05263157894736842	-0.05263157894736842	0.7473684210526317	1.9547828483581526			1.8755758428573586			2.2493614160097573	2.2397504096561	2.921689081192028	3	6	23	1	1	0	18	0	1.0294736423154438	2.3603157488505055	1.6992117277781134	2.247646224395089	1.9027440452575768	-0.6611040210723922	1.7654200935363633		2.0554536655214144		1	0	4	0	0	2	0	2	0	13	0	0	8	1	1	0	2.012579069137587		1.940333793163294			2.534184088706965		1.216967597007752		2.2493614160097573			2.2818762052059154	2.921689081192028	1.9027440452575768	
sub-01	ses-015	run-2	6	23	1	13	29	14	0.1354679802955665	0.6479969706561228	1.963667995134987	2.0699715983349383	1.0436359214782698	2.0335020564152657	0.9200320736567171	4	0	1	1	2	7	10	3	6	7	11	4	0.5952380952380952	-0.07142857142857142	0.019480519480519487	0.17857142857142858	1.8511510062217695		1.9031209564208995	2.474282989501944		2.084218988418584	1.604554929733278	2.1189571580886883	3.079675884246832	3	3	22	1	0	1	13	0	0.20308861606271522	2.5299086411793965	1.3974273490905773	2.046995586481965	2.5754438591003463	-1.1324812920888192		1.0436359214782698	2.0335020564152657		2	0	2	0	0	1	1	0	2	7	0	0	9	3	1	0	2.5577214670181228		1.1445805454254163			2.474282989501944	1.9031209564208995		2.084218988418584	1.604554929733278			2.0682364135318374	3.079675884246832	2.5754438591003463	
sub-01	ses-015	run-3	5	19	1	13	24	14	0.13690476190476192	0.6530159911856102	1.6508903484344444	2.138810495075426	1.378309221267699	2.185509762397179	0.2725811271667453	2	0	0	2	6	4	5	4	8	4	5	6	0.17857142857142858	-0.07142857142857142	-0.07142857142857142	0.26190476190476186	1.9124566555023108			1.410132646560669		1.811996623675024	2.5080976343154955	2.711849496841429	1.5434454107284559	1	4	18	1	0	1	13	0	0.49781222658382196	2.685688219070414	1.392190880775452	2.047663680712381	3.779453153610232	-1.2934973382949622		1.378309221267699	2.185509762397179		1	0	1	0	0	0	0	2	6	4	0	0	4	4	1	0	2.685688219070414		1.1392250919342075					1.410132646560669	1.811996623675024	2.5080976343154955			2.4449485826492285	1.5434454107284559	3.779453153610232	
sub-01	ses-015	run-4	8	26	2	14	34	16	0.11029411764705882	0.42882709639366456	1.8929196786880507	1.8484430973346422	3.4304178380966306	1.9012936353683467	-1.53749815940858	3	0	0	5	4	8	9	4	7	8	9	9	0.30357142857142855	-0.125	-0.125	0.4305555555555556	2.4612422116597514			1.5519261589050302		2.1567178797721906	1.4130004131793976	2.035140156216095	2.0041483736038117	1	7	26	0	0	2	13	1	0.3295572920436274	2.9899339103698708	1.736203359876362	1.8484430973346422		-1.2537305504935088		3.4304178380966306	2.035630695636456	0.1549118518829288	1	0	2	0	0	0	0	5	4	8	0	0	9	4	0	0	2.9899339103698708		2.1968963623046918					1.5519261589050302	2.1567178797721906	1.4130004131793976			2.035140156216095	2.0041483736038117		
sub-01	ses-015	run-5	9	15	2	11	24	13	0.22115384615384615	0.7014368688218262	1.9447479512956432	1.9126303666432707	2.636168909072877	1.9538177811015733	-0.6914209577772339	4	0	1	4	2	3	4	6	6	3	5	10	0.5128205128205128	-0.15384615384615385	0.046153846153846156	0.24615384615384617	2.4987746953964276		0.2535770225524905	1.8135139393806465		2.5261859416961703	1.4227965641021723	1.8433414149284384	1.9992213773727414	4	5	15	0	0	2	10	1	0.20785843128628856	3.014804911613467	1.0887023830413836	1.9126303666432707		-1.9261025285720836		2.636168909072877	1.9844470653533932	1.6475249385833737	3	0	1	0	0	1	1	3	2	3	0	0	4	6	0	0	2.949951597849529		1.145243988037123			3.2093648529052814	0.2535770225524905	1.3482303015391015	2.5261859416961703	1.4227965641021723			1.8433414149284384	1.9992213773727414		
sub-01	ses-015	run-6	15	24	0	20	39	20	0.38461538461538464	1.6665827524188612	1.281297651926678	1.7886070406436942		1.6639922494888304		7	0	0	7	6	5	6	6	13	5	6	13	0.5384615384615384	0.0	0.0	0.5384615384615384	1.5165500559125622			1.0653773716517898		1.5799385945002289	1.2286061382293751	1.9227035665512073	2.0014713939030977	2	13	24	0	0	0	20	0	1.5292366852445969	1.8803319978713935	1.1891385217813375	1.7886070406436942		-0.691193476090056			1.6639922494888304		2	0	5	0	0	0	0	7	6	5	0	0	6	6	0	0	1.8803319978713935		1.3710372791290297					1.0653773716517898	1.5799385945002289	1.2286061382293751			1.9227035665512073	2.0014713939030977		
sub-01	ses-016	run-1	12	22	1	18	34	19	0.30030959752321984	1.242464314809716	1.953652176062264	2.1803202897852163	2.3061939525604203	2.6647496159871435	-0.3525417764981562	5	0	2	5	0	13	9	0	5	13	11	5	0.9473684210526316	-0.05263157894736842	0.1291866028708134	0.9473684210526316	1.6184112281799288		2.223938007354736	2.1807787914276107			2.0525937065711455	2.364814243316652		5	7	21	1	1	0	18	0	1.1171394225204483	2.545284040451044	1.5310579872131354	2.141977302914579	2.985523014068604	-1.0142260532379086	2.3061939525604203		2.6647496159871435		1	0	4	0	2	2	0	3	0	13	0	0	8	0	1	0	2.918902120590189		1.2932885050773635		2.223938007354736	2.6798210334777792		1.8480839633941646		2.0525937065711455			2.287225646972658		2.985523014068604	
sub-01	ses-016	run-2	14	23	0	18	37	18	0.3783783783783784	1.604763293517027	2.03902668612344	2.1588299195662826		1.8160264317194619		4	3	1	6	4	9	9	1	8	12	10	7	0.5	0.25	0.1	0.8571428571428571	1.6344431567192075	2.1158052730560257	3.0178229904174856	2.107227028210962	-0.48136211633681825	2.271516745090487	2.2165686289469444	2.034218278461038	2.309939002990717	8	6	23	0	0	0	18	0	0.9288954081882876	2.8098793673515363	1.0112231111526455	2.1588299195662826		-1.7986562561988908			1.8160264317194619		2	2	2	1	1	3	0	3	4	9	0	0	9	1	0	0	2.2910054206848116	3.172734456062315	0.9778808927536033	0.0019469070434467	3.0178229904174856	2.8445773983001836		1.3698766581217399	2.271516745090487	2.2165686289469444			2.034218278461038	2.309939002990717		
sub-01	ses-016	run-3	17	13	0	13	30	13	0.5666666666666667	1.936719043306812	1.530497694576488	2.0188159436445967		2.164226531248827		7	1	1	8	0	7	6	0	7	8	7	8	1.0	0.125	0.14285714285714285	1.0	1.5596206065586589	1.900532169342085	2.056756944656371	1.3929784309864037	-0.34091156278342605		2.243292202268326	1.756926975250246		4	13	12	1	0	0	12	1	1.600931033730601	1.9786328101158226	1.3926099667182315	1.9589515097935994	2.7371891498565617	-0.5860228433975911			2.1517582432429	2.313845987319951	2	1	5	0	1	0	0	8	0	6	0	1	6	0	0	0	1.978621063232417	1.900532169342085	1.3920204238891558		2.056756944656371			1.3929784309864037		2.160976044336953		2.7371891498565617	1.756926975250246			
sub-01	ses-016	run-4	16	22	0	18	38	18	0.42105263157894735	1.7153045002662903	1.3244101458787956	2.337655892805621		1.9579984045028682		8	0	0	8	2	10	9	1	10	10	9	9	0.8	0.0	0.0	0.8888888888888888	1.1866207969188736			1.4621994948387176		2.0741389989852905	2.269972836494447	2.5326096852620434	1.786936111450217	0	16	20	2	0	0	16	2	1.7153045002662903		1.3244101458787956	2.2688686814308174	3.025528006553655				1.9418261408805844	2.0873765134811393	0	0	8	0	0	0	0	8	2	10	0	0	7	1	2	0			1.1866207969188736					1.4621994948387176	2.0741389989852905	2.269972836494447			2.3917758791787262	1.786936111450217	3.025528006553655	
sub-01	ses-016	run-5	20	20	2	18	40	20	0.4	1.2815515655446004	1.7434299840927168	2.1379755616188025	2.2943424129486054	2.1719868336783543	-0.5509124288558886	7	1	2	10	5	7	6	2	12	8	8	12	0.4833333333333334	0.024999999999999994	0.15	0.7333333333333334	1.5233008984157033	3.09527700424195	2.9013450241088874	1.5307526340484685	-1.571976105826247	1.72567969703674	2.0275079359326997	2.784139568010964	1.616859893798832	5	15	17	3	2	0	18	0	1.6413246205756793	2.7260313987732028	1.4158961791992213	2.097027624915625	2.370013869603473	-1.3101352195739815	2.2943424129486054		2.1719868336783543		0	1	7	0	2	2	0	8	4	7	1	0	4	2	2	0		3.09527700424195	1.5233008984157033		2.9013450241088874	2.366094970703145		1.3219170498847994	1.7136866664886463	2.0275079359326997	1.7736518192291155		2.8421119046211203	1.616859893798832	2.668194894790652	
sub-01	ses-016	run-6	26	14	0	20	40	20	0.65	2.3452844509476223	1.4862561574349038	1.558366952623643		1.5336132431030287		13	0	1	12	1	6	5	2	14	6	6	14	0.9285714285714286	0.0	0.16666666666666666	0.8571428571428571	1.3468370136847843		3.790032863616944	1.4453121709823635		3.032595987319951	1.6713567956288682	1.184997722625735	1.4157059812545825	3	23	13	1	0	0	18	2	2.149082410812847	2.7461182498931884	1.321926319288171	1.5224573348118737	2.025191984176644	-1.4241919306050175			1.5115323877334612	1.7323409414291362	0	0	13	0	1	2	0	10	1	5	0	1	5	2	0	0			1.3468370136847843		3.790032863616944	2.224160943031311		1.289542416572574	3.032595987319951	1.6005897579193131		2.025191984176644	1.184997722625735	1.4157059812545825		
sub-01	ses-017	run-1	8	20	2	14	28	16	0.1607142857142857	0.5844005584431448	2.5446077477931994	2.1033632578849852	2.4698249149322535	1.8865636362348266	0.07478283286094589	3	1	3	1	2	11	6	1	5	12	9	2	0.475	-0.04166666666666667	0.20833333333333331	0.375	2.0738193384806323	2.5373819351196403	2.913911348978678	2.856287984848024	-0.463562596639008	3.7036695432663	1.9756090987812471	1.6658731667200755	2.932986984252935	4	4	20	0	1	1	13	1	0.46655002047440486	2.796838963031772	2.292376532554627	2.1033632578849852		-0.5044624304771448	2.9979209423065214	1.9417288875579857	1.8891567589686444	1.8528530406951944	1	1	2	0	2	0	1	1	2	11	0	0	6	1	0	0	2.1978569316864025	2.5373819351196403	2.011800541877747		3.2260584926605222		2.2896170616149902	2.856287984848024	3.7036695432663	1.9756090987812471			1.6658731667200755	2.932986984252935		
sub-01	ses-017	run-2	7	20	0	9	27	9	0.25925925925925924	0.9475880687470686	2.615431202479772	1.8657705574035677		2.4021269851260723		3	2	0	2	3	7	7	3	6	9	7	5	0.5	0.2222222222222222	0.0	0.4	2.332733386357622	3.146255025863649		2.5086541032791203	-0.813521639506027	2.019631935755418	1.5606463146209788	2.1005637223379945	1.876015027364095	3	4	20	0	0	0	9	0	0.5488100231504547	3.1059581120808915	2.2475360202789325	1.8657705574035677		-0.8584220918019589			2.4021269851260723		1	1	2	1	0	1	0	1	3	7	0	0	7	3	0	0	3.096140098571766	3.914002141952516	1.9510300302505499	2.3785079097747825		2.307732095718393		2.709576110839848	2.019631935755418	1.5606463146209788			2.1005637223379945	1.876015027364095		
sub-01	ses-017	run-3	10	15	0	11	25	11	0.4	1.437274526449098	2.269421769142153	1.8669727420806888		2.1684753990173378		4	0	2	4	3	4	5	3	7	4	7	7	0.5714285714285714	0.0	0.2857142857142857	0.5714285714285714	2.1630242133140527		2.3542950057983623	2.3333827066421478		1.1476966285705619	2.5257897830009437	1.9584380130767811	1.5553840160369887	2	8	14	1	0	0	11	0	1.2229228304703894	2.8766479873657147	2.1176152145862623	1.8344777209418157	2.3219030380249137	-0.7590327727794524			2.1684753990173378		1	0	3	0	0	1	2	3	3	4	0	0	4	3	1	0	2.147763023376456		2.168111276626585			3.6055329513549736	2.3542950057983623	1.9093326250712057	1.1476966285705619	2.5257897830009437			1.867571756839748	1.5553840160369887	2.3219030380249137	
sub-01	ses-017	run-4	10	22	1	11	32	12	0.22916666666666669	0.8942177159859686	2.183915136337279	2.3353077940507396	2.689040889739992	1.8632975777712766	-0.5051257534027127	5	1	0	4	7	2	6	7	12	3	6	11	0.33333333333333337	0.25	-0.08333333333333333	0.28030303030303033	2.4024508190155016	2.676485958099363		1.7876028275489797	-0.27403513908386135	2.5519321577889604	2.3185270071029653	2.2372091658910094	2.207562479291652	2	8	22	0	0	1	11	0	0.7085043769045564	2.066017007827753	2.2133896684646603	2.3353077940507396		0.14737266063690724		2.689040889739992	1.8632975777712766		1	0	4	1	0	1	0	3	7	2	0	0	6	7	0	0	2.217688999176005		2.448641273975376	2.676485958099363		1.9143450164795013		1.7453554312388058	2.5519321577889604	2.3185270071029653			2.2372091658910094	2.207562479291652		
sub-01	ses-017	run-5	8	12	2	5	20	7	0.11428571428571432	0.3126017187970634	1.979259561300278	2.137833469708759	1.5666645145416247	1.274490335464478	0.4125950467586532	3	0	1	4	2	4	3	3	5	4	4	7	0.3142857142857143	-0.2857142857142857	-0.0357142857142857	0.2857142857142857	1.3845242595672662		3.733486890792847	1.9867542052268945		2.3484434843063298	1.41790320634842	2.1799802684783924	2.9151870123545316	1	7	12	0	1	1	4	1	0.6822500574705737	2.7683540248870884	1.8665317807878765	2.137833469708759		-0.9018222440992119	2.9896289730072	0.1437000560760495	1.5708639383316043	0.0889959239959736	0	0	3	0	0	1	1	3	2	4	0	0	3	3	0	0			1.3845242595672662			2.7683540248870884	3.733486890792847	1.7262209320068298	2.3484434843063298	1.41790320634842			2.1799802684783924	2.9151870123545316		
sub-01	ses-017	run-6	5	7	1	12	12	13	0.33974358974358976	1.2156484780249226	2.410258720397942	1.4897679029192241	0.0207778739929196	1.7966674208641071	2.3894808464050223	2	1	1	1	2	4	0	1	4	5	1	2	0.4230769230769231	0.12307692307692308	0.9230769230769231	0.4230769230769231	2.0877759552001858	2.443402986526493	3.799339866638178	1.632998838424669	-0.355627031326307	1.4002963447570802	1.5855929446220394		1.2854108524322498	0	5	7	0	0	1	11	1	1.2156484780249226		2.410258720397942	1.4897679029192241				0.0207778739929196	1.7699319267272977	2.090757856369009	0	0	2	1	0	0	1	1	2	4	0	0	0	1	0	0			2.0877759552001858	2.443402986526493			3.799339866638178	1.632998838424669	1.4002963447570802	1.5855929446220394				1.2854108524322498		
sub-01	ses-018	run-1	11	29	0	20	40	20	0.275	1.3622038584975762	1.3238454790907044	2.165760017689477		2.044265439699823		6	0	0	5	0	14	14	1	6	14	14	6	1.0	0.0	0.0	0.8333333333333334	1.2413097498333225			1.422888354199563			2.109551862714082	2.198643166357002	2.4923101059996497	0	11	25	4	0	0	20	0	1.3622038584975762		1.3238454790907044	2.081570659879794	2.691943503999992				2.044265439699823		0	0	6	0	0	0	0	5	0	12	0	2	12	1	2	0			1.2413097498333225					1.422888354199563		2.0586579092497126		2.4149155835002993	2.070255123333222	2.4923101059996497	2.968971424499685	
sub-01	ses-018	run-2	15	25	1	19	40	20	0.325	1.3262142629870977	1.3127779806003488	1.8347453032404726	1.8556462000004783	1.926901199526992	-0.5428682194001295	7	0	0	8	1	12	12	0	8	12	12	8	0.825	-0.05	-0.05	0.95	1.4141069055717534			1.2241151712503697		2.562341730000554	1.9396277811674123	1.6692297897501926		0	15	23	2	1	0	17	2	1.6413246205756793		1.3127779806003488	1.7771363686960913	2.4972480505008576		1.8556462000004783		1.82935723194187	2.7560249240005277	0	0	7	0	0	0	0	8	1	11	0	1	11	0	1	0			1.4141069055717534					1.2241151712503697	2.562341730000554	1.894051188364405		2.440970302000494	1.5888392434546446		2.553525799001221	
sub-01	ses-018	run-3	16	24	1	19	40	20	0.35000000000000003	1.3915065238156732	1.4675969088756382	1.548243500375569	2.863116316000962	1.8200079566323528	-1.3955194071253239	8	0	0	8	2	10	10	2	10	10	10	10	0.75	-0.05	-0.05	0.75	1.455209180125662			1.4799846376256145		2.1108965960004578	1.686226104500442	1.3202686123007303	1.4355518245005072	2	14	24	0	1	0	18	1	1.5746435181324867	2.547765925500954	1.313287049357736	1.548243500375569		-1.2344788761432182	2.863116316000962		1.7824215147229756	2.4965639110011395	1	0	7	0	0	1	0	7	2	10	0	0	10	2	0	0	1.705515489000362		1.4194511360007047			3.390016362001546		1.207122962714767	2.1108965960004578	1.686226104500442			1.3202686123007303	1.4355518245005072		
sub-01	ses-018	run-4	20	18	0	20	38	20	0.5263157894736842	2.025975796915895	1.4773307324002205	2.0334467573333734		1.938409271250044		10	0	0	10	0	10	8	0	10	10	8	10	1.0	0.0	0.0	1.0	1.4785907302003611			1.4760707346000799			1.9892452237000235	2.088698674375061		2	18	14	4	0	0	17	3	1.8939521721642139	2.7072948745001124	1.340668049944677	1.8631957856429593	2.6293251582498236	-1.3666268245554354			1.8422899395295007	2.4830854843331216	2	0	8	0	0	0	0	10	0	7	0	3	7	0	1	0	2.7072948745001124		1.1714146941254233					1.4760707346000799		1.7419859034286571		2.5661836376665454	1.9844056678572615		2.8187497199996585	
sub-01	ses-018	run-5	23	17	0	20	40	20	0.575	2.149082410812847	1.210738080218227	1.6080929445889958		1.4604120078506244		12	1	0	10	0	7	8	2	12	8	8	12	1.0	0.125	0.0	0.8333333333333334	1.2295049841675774	2.1721429960011847		1.092077303900711	-0.9426380118336073		1.719079702286542	1.3846951108758132	2.1132306275003145	2	21	15	2	0	0	19	1	2.0226707624832683	2.11357211400059	1.1247538865246687	1.552345881867486	2.0261959150003186	-0.9888182274759212			1.4444690289479836	1.7633286070008012	1	1	11	0	0	0	0	10	0	6	0	1	7	2	1	0	2.055001231999995	2.1721429960011847	1.1544598707282667					1.092077303900711		1.6202047900009682		2.3123291759999844	1.3339283190008362	2.1132306275003145	1.7400626540006527	
sub-01	ses-018	run-6	27	13	0	20	40	20	0.675	2.413726174709934	1.2175709832959645	1.662339220461124		1.4400715849997145		13	0	0	14	1	6	6	0	14	6	6	14	0.9285714285714286	0.0	0.0	1.0	1.1875482325381543			1.2454492518567883		1.3889300239994211	1.7150107311662595	1.6552359091662723		0	27	10	3	0	0	18	2	2.413726174709934		1.2175709832959645	1.475480901499645	2.285200283666054				1.4067856482219148	1.739645015999912	0	0	13	0	0	0	0	14	1	4	0	2	5	0	1	0			1.1875482325381543					1.2454492518567883	1.3889300239994211	1.3984317812498572		2.348168630999064	1.55443037319952		2.159263589000034	
sub-01	ses-019	run-1	19	19	2	18	38	20	0.4	1.2815515655446004	2.305598359248039	2.419908973513736	2.690867450503866	2.3227342909709052	-0.385269091255827	6	5	4	4	0	9	9	1	6	14	13	5	0.9	0.2571428571428571	0.2076923076923077	0.7000000000000001	2.2401018678249494	2.6002894165734785	2.9870555284910383	1.3540221054828763	-0.3601875487485291		2.2319792390943287	2.6594268539943755	1.9556156589626423	9	10	19	0	1	1	17	1	1.011213626171772	2.975763232758167	1.702449973088924	2.419908973513736		-1.2733132596692431	2.3003641550033365	3.081370746004396	2.2950969503835026	2.7925690809567527	1	4	5	1	4	0	0	4	0	9	0	0	9	1	0	0	2.9856050529703566	2.9620104819722495	2.091001230795868	1.153405154978394	2.9870555284910383			1.3540221054828763		2.2319792390943287			2.6594268539943755	1.9556156589626423		
sub-01	ses-019	run-2	13	16	3	8	29	11	0.17554858934169282	0.4745667632761529	1.786893623701047	1.9621590035024608	1.7881260723364545	2.0614317510041316	-0.0012324486354073905	3	1	4	5	3	7	5	1	6	8	9	6	0.2272727272727273	-0.1477272727272727	0.1717171717171717	0.5606060606060607	2.0447728426746656	0.0342298360262134	1.9107580640062265	1.8836072976076992	2.010543006648452	1.7264682203314123	1.8609626417151421	2.0147307456047256	3.114747175015509	3	10	16	0	1	2	8	0	0.5091348011878338	2.7532773783251976	1.4969784973138018	1.9621590035024608		-1.2562988810113958	0.3504151299782094	2.506981543515577	2.0614317510041316		1	0	2	1	2	0	2	5	3	7	0	0	5	1	0	0	2.0997814639843995		2.0172685320197985	0.0342298360262134	3.0800253354955967		0.7414907925168563	1.8836072976076992	1.7264682203314123	1.8609626417151421			2.0147307456047256	3.114747175015509		
sub-01	ses-019	run-3	15	14	2	14	29	16	0.39224137931034486	1.1935805715288252	2.4883812200801136	2.233663380154511	1.3315366835263625	1.6251539684344813	1.1568445365537512	4	0	4	7	1	8	4	1	5	8	8	8	0.675	-0.125	0.375	0.75	2.631416664019344		2.8118105245230254	2.2218299352903172		2.18885971298441	2.087906767512618	2.3439972292596956	3.0031845520390164	8	7	14	0	2	0	14	0	1.1608592719996913	2.9428980317688556	1.9689334352929795	2.233663380154511		-0.9739645964758761	1.3315366835263625		1.6251539684344813		3	0	1	0	4	1	0	6	1	8	0	0	4	1	0	0	2.8719959106824056		1.9096789240301604		2.8118105245230254	3.679954424011527		1.978809187170116	2.18885971298441	2.087906767512618			2.3439972292596956	3.0031845520390164		
sub-01	ses-019	run-4	15	15	0	16	30	16	0.5	1.8627318674216515	2.3561569500469313	2.5346357061156706		2.0536177083550173		7	1	1	6	0	6	8	1	7	7	9	7	1.0	0.14285714285714285	0.1111111111111111	0.8571428571428571	2.166661445407661	2.4637721019797	2.6935776979592845	2.5030623888185595	-0.29711065657203894		2.386697160815821	2.6169501267356106	2.763751612955246	7	8	15	0	0	0	16	0	1.2398061442115638	2.824665444695858	1.94621201722912	2.5346357061156706		-0.8784534274667379			2.0536177083550173		3	1	4	0	1	2	0	4	0	6	0	0	8	1	0	0	2.7395162283210035	2.4637721019797	1.7370203582226535		2.6935776979592845	3.198379813984506		2.1554036762355864		2.386697160815821			2.6169501267356106	2.763751612955246		
sub-01	ses-019	run-5	20	19	1	19	39	20	0.4628205128205128	1.676995420278811	1.606537134560988	1.9423442370558501	3.9715197729878176	1.878807283325101	-2.3649826384268295	8	0	2	10	4	8	5	2	12	8	7	12	0.6166666666666666	-0.05	0.2357142857142857	0.7833333333333333	1.686806825878449		2.0579513685195643	1.4520385347153042		2.3874928172508936	1.9058755707513766	1.8196410422124956	1.5046797289920448	2	18	19	0	1	0	18	1	1.8634053692504153	2.9457218745013165	1.4577388301231737	1.9423442370558501		-1.4879830443781428	3.9715197729878176		1.852241109399414	2.356998413987469	0	0	8	0	1	1	1	9	4	8	0	0	5	2	0	0			1.686806825878449		2.455933950012536	3.435509798990097	1.6599687870265925	1.2316528386847716	2.3874928172508936	1.9058755707513766			1.8196410422124956	1.5046797289920448		
sub-01	ses-019	run-6	29	11	1	19	40	20	0.6749999999999999	2.242613752993951	1.6703009622361005	1.9074177325425945	2.0540577160078044	2.1955148132579225	-0.38375675377170393	12	0	4	13	2	6	2	1	14	6	6	14	0.807142857142857	-0.05	0.6166666666666666	0.8785714285714286	1.588942391830111		2.5717401675082487	1.4680352717578913		1.0695385339949297	2.2824615508244257	1.453580903004621	2.240586879022885	5	24	10	1	1	0	19	0	2.213311087675854	2.658051661797334	1.464519566494177	1.8577436809975203	2.4041582479933368	-1.1935320953031572	2.0540577160078044		2.1955148132579225		1	0	11	0	2	2	2	11	2	5	0	1	2	1	0	0	2.091109349015169		1.543290850267833		3.187883460510057	2.4116910194756933	1.9555968745064405	1.2964614994455637	1.0695385339949297	2.2581222113906434		2.4041582479933368	1.453580903004621	2.240586879022885		
sub-01	ses-020	run-1	19	20	2	18	39	20	0.38717948717948714	1.249409772217262	1.582025661447308	1.950891244967935	3.3302434415253757	1.830159678578043	-1.7482177800780676	6	4	3	6	0	9	11	0	6	13	14	6	0.9	0.2076923076923077	0.11428571428571427	0.9	1.0647996956932637	2.320863119774728	2.6252202893514323	1.0850960076976766	-1.2560634240814643		1.969535245798115	1.9356370624705148		5	14	20	0	2	0	17	1	1.5987623468287353	2.8329768764176464	1.1352573703864728	1.950891244967935		-1.6977195060311736	3.3302434415253757		1.7622153839034822	2.9852126880455767	0	3	6	1	2	0	1	6	0	9	0	0	11	0	0	0		2.7004336070207224	1.0647996956932637	1.1821516580367444	3.031791780513032		1.8120773070282328	1.0850960076976766		1.969535245798115			1.9356370624705148			
sub-01	ses-020	run-2	19	21	1	19	40	20	0.425	1.582146849008259	1.510458087817842	1.9480326707830773	3.33820203495911	1.7535226278084257	-1.8277439471412682	8	1	2	8	0	11	10	0	8	12	12	8	0.95	0.033333333333333326	0.11666666666666665	0.95	1.2221299296055825	3.192628053957605	2.7033702819759498	1.290286951723104	-1.9704981243520225		2.04611840133915	1.840138367171398		3	16	21	0	1	0	18	1	1.7066168814042548	2.866456205969835	1.2562084406643432	1.9480326707830773		-1.6102477653054916	3.33820203495911		1.7417388655783415	1.96563034794994	0	1	8	0	2	0	0	8	0	11	0	0	10	0	0	0		3.192628053957605	1.2221299296055825		2.7033702819759498			1.290286951723104		2.04611840133915			1.840138367171398			
sub-01	ses-020	run-3	26	14	1	19	40	20	0.6	2.0301740933590406	1.649681194176217	1.812745215882482	1.9946312980446947	2.0672308778162387	-0.3449501038684777	10	5	2	9	0	5	8	1	10	10	10	10	0.95	0.45	0.15000000000000002	0.85	1.3228998358182136	2.58897903101891	2.75431459753192	1.2454653711379022	-1.2660791952006962		1.6961676904144696	1.6517168061595318	3.683860121006148	7	19	13	1	1	0	17	2	1.8972572065968407	2.5274759943081415	1.326283109917087	1.7999301591778831	1.979340953042268	-1.2011928843910544	1.9946312980446947		2.0371032337943014	2.3233158520027075	2	4	8	1	1	0	1	9	0	4	0	1	8	1	0	0	1.831905708012627	2.7016402972751496	1.1956483677696101	2.138333965993951	3.2219593550311387		2.286669840032701	1.2454653711379022		1.62537437475752		1.979340953042268	1.6517168061595318	3.683860121006148		
sub-01	ses-020	run-4	17	22	2	17	39	19	0.33063427800269907	1.0907404775309804	1.6704565891841272	2.511450308692243	2.5493310520111123	2.042819669832311	-0.8788744628269851	8	0	1	8	2	10	9	1	10	10	10	9	0.6947368421052632	-0.10526315789473684	-0.005263157894736831	0.783625730994152	1.7366500667482594		1.631336793019436	1.6091530861405814		2.444538625016577	2.8523500053132946	2.0085883206734447	3.762034602002245	2	15	20	2	1	1	16	1	1.3264750265170766	2.6401405285124184	1.5411653972736883	2.485160628458722	2.774347111027451	-1.0989751312387301	3.264401548001928	1.834260556020297	2.017754708257562	2.443859055028298	1	0	7	0	0	1	1	7	1	9	1	1	9	1	0	0	3.5226845279871384		1.4815022865712766			1.7575965290376985	1.631336793019436	1.587946880012422	2.998768747998412	2.7627904814569764	1.8903085020347417	3.65838572002016	2.0085883206734447	3.762034602002245		
sub-01	ses-020	run-5	15	18	0	16	33	16	0.45454545454545453	1.7485465731002232	2.2252626222867256	2.008963740961756		2.029622306015808		6	0	0	9	3	7	6	2	9	7	6	11	0.6666666666666666	0.0	0.0	0.8181818181818182	2.4306476563645987			2.0883392662348097		1.337944579351851	1.976382201439369	2.433393103025152	1.8562397855147807	3	12	17	1	0	0	15	1	1.5139761719046068	2.7121627657022316	2.1035375864328487	2.113270109369256	0.2357554780342639	-0.6086251792693829			2.053476495482338	1.671809464017855	2	0	4	0	0	1	0	8	2	7	1	0	6	2	0	0	2.6280436330370094		2.3319496680283933			2.880401031032676		1.9893315456350766	1.8890391300106446	1.976382201439369	0.2357554780342639		2.433393103025152	1.8562397855147807		
sub-01	ses-020	run-6	12	16	0	16	28	16	0.42857142857142855	1.6827194976289463	2.058537797026606	2.667993677149936		1.746167452336233		5	1	1	5	4	5	3	4	9	6	4	9	0.5555555555555556	0.16666666666666666	0.25	0.5555555555555556	2.152168299029577	2.6700480140466283	3.475434210032688	1.5592259690184136	-0.5178797150170511	1.8092896845092845	2.9688343510236592	2.2719973460414074	3.447644075779831	2	10	15	1	0	0	15	1	1.496625510621082	3.072741112039658	1.8556971340239954	2.605122188093453	3.611066012997181	-1.2170439780156628			1.7629399843568316	1.4945794720272536	0	1	5	0	1	0	0	5	4	4	0	1	3	4	0	0		2.6700480140466283	2.152168299029577		3.475434210032688			1.5592259690184136	1.8092896845092845	2.8082764355302787		3.611066012997181	2.2719973460414074	3.447644075779831		
sub-01	ses-021	run-1	18	22	0	20	40	20	0.45	1.8343026376849805	1.69229264922298	1.9820820375566865		1.8260811227051295		6	2	4	6	0	12	10	0	6	14	14	6	1.0	0.14285714285714285	0.2857142857142857	1.0	1.3618790853392302	2.7523560049827207	2.229578627508012	1.3111611089967947	-1.3904769196434905		1.8618841489270601	2.1263195039122382		6	12	21	1	0	0	19	1	1.4355634718320136	2.6015537298265126	1.2376621089212136	1.997001099296782	1.6687817410146837	-1.363891620905299			1.8152247442683724	2.032352313003514	1	2	5	0	3	0	1	6	0	12	0	0	9	0	1	0	2.731380043975122	2.7523560049827207	1.087978893612052		2.457743441672837		1.5450841850135362	1.3111611089967947		1.8618841489270601			2.177157033123078		1.6687817410146837	
sub-01	ses-021	run-2	21	19	0	19	40	19	0.525	2.0006382887960426	1.7323184462055756	1.9939595957019527		1.58478925169654		8	2	4	7	0	10	8	1	8	12	12	8	1.0	0.16666666666666666	0.3333333333333333	0.875	1.4921981112589127	1.927021892010238	2.530940736266203	1.4947565358800716	-0.43482378075132533		1.799282488418281	2.000948176768725	3.884822020004492	7	14	19	0	0	0	19	0	1.552611044445261	2.214566762445362	1.4911942880856823	1.9939595957019527		-0.7233724743596797			1.58478925169654		2	2	6	0	3	0	1	7	0	10	0	0	8	1	0	0	2.0127453280112206	1.927021892010238	1.3186823723414764		2.540810965691539		2.5013300479901943	1.4947565358800716		1.799282488418281			2.000948176768725	3.884822020004492		
sub-01	ses-021	run-3	13	14	1	14	27	15	0.4148148148148148	1.4546502212734977	2.2156764406673286	2.4599318766041796	3.1996532399696207	2.2805183541057974	-0.9839767993022921	6	1	1	5	1	5	7	1	7	6	8	6	0.7904761904761904	0.09999999999999999	0.058333333333333334	0.7666666666666667	2.2755257694718196	1.7800745029957028	1.9109563579433484	2.2919216501810613	0.4954512664761168	2.2120438029663774	2.860149158549961	2.345637905255091	1.506791339956692	6	7	14	0	0	1	14	0	0.8554551967680428	1.9999263217998735	2.4006051139822904	2.4599318766041796		0.40067879218241687		3.1996532399696207	2.2805183541057974		1	1	5	0	1	3	0	2	1	5	0	0	7	1	0	0	3.1137735089450587	1.7800745029957028	2.107876221577172		1.9109563579433484	1.731584520305044		3.132427344995087	2.2120438029663774	2.860149158549961			2.345637905255091	1.506791339956692		
sub-01	ses-021	run-4	21	19	2	18	40	20	0.42500000000000004	1.3442583434878141	1.7858523773042771	1.8215099752334123	2.49387154253432	1.5607662273612282	-0.7080191652300429	8	1	3	9	2	9	7	1	10	10	10	10	0.7000000000000001	0.0	0.19999999999999998	0.8	1.7519336582749396	1.9814776020147848	2.172096143022647	1.6655182917897307	-0.2295439437398452	1.718003572002047	2.0227060550231384	1.5747856787406005	1.9448281390382915	9	12	17	2	1	1	18	0	1.120453114243432	2.3244689501314935	1.3818899476838649	1.7698093060212354	2.260965663536918	-0.9425790024476286	2.9612023970438166	2.026540688024824	1.5607662273612282		3	1	5	0	3	2	0	7	2	8	0	1	7	0	0	1	2.4801085510197964	1.9814776020147848	1.3150287226280255		2.172096143022647	2.4910644335206626		1.429647965580893	1.718003572002047	1.9534064133965878		2.577103188035544	1.5747856787406005			1.9448281390382915
sub-01	ses-021	run-5	21	19	0	20	40	20	0.525	2.0226707624832683	1.794942396229156	1.8190173829395924		2.0007680134922285		11	0	1	9	1	8	7	3	12	8	8	12	0.9166666666666666	0.0	0.125	0.75	1.4979890979013688		3.2115492029953714	2.000484560100206		1.0646613760083028	1.8100979102391281	2.0322592638429646	1.5966902570100576	6	15	17	2	0	0	19	1	1.6413246205756793	2.5028990198198406	1.5117597467928825	1.792467382344938	2.0446923879941536	-0.9911392730269581			1.9874639501517033	2.253545216962209	3	0	8	0	1	2	0	7	1	7	0	1	6	3	1	0	2.1918949269961274		1.2377744119908343		3.2115492029953714	2.6150800674676447		1.824885843709509	1.0646613760083028	1.7795974434147184		2.023601178009997	2.026671874820407	1.5966902570100576	2.06578359797831	
sub-01	ses-021	run-6	22	17	1	19	39	20	0.514102564102564	1.806232669685712	1.3239117977610508	1.582028713278912	3.939556116007735	1.7188827700871299	-2.615644318246684	9	0	0	13	4	6	6	1	13	6	6	14	0.6423076923076922	-0.05	-0.05	0.8785714285714286	1.34286081564794			1.3107932469162813		1.499227988993515	1.4174458388107256	1.7888187006550542	1.659988932972766	1	21	16	1	1	0	17	2	2.0565225998296937	1.854433527977676	1.2986488582269258	1.6081137817347209	1.1646676179859696	-0.5557846697507502	3.939556116007735		1.6450136351555273	2.34677041700575	1	0	8	0	0	0	0	13	3	6	1	0	6	1	0	0	1.854433527977676		1.278914226606723					1.3107932469162813	1.6107481126626968	1.4174458388107256	1.1646676179859696		1.7888187006550542	1.659988932972766		
sub-01	ses-022	run-1	11	22	1	16	33	17	0.2745098039215686	1.1339991720663412	2.2353791012708126	2.2698260848199854	2.004383334028546	2.291454251503453	0.23099576724226667	2	0	4	5	3	13	6	0	5	13	10	5	0.3411764705882353	-0.058823529411764705	0.3411764705882353	0.9411764705882353	2.8860424025042484		2.643239240241239	1.6488256696010979		1.9243155110115235	2.1735848285365305	2.6511040936717003		5	6	22	0	0	1	16	0	0.6562686028244137	2.7025553746027917	1.8460655401608304	2.2698260848199854		-0.8564898344419614		2.004383334028546	2.291454251503453		1	0	1	0	3	1	1	4	3	13	0	0	6	0	0	0	3.913073484019847		1.8590113209886496		2.2362769899967474	2.8908724190038697	3.8641259909747134	1.3383139822504049	1.9243155110115235	2.1735848285365305			2.6511040936717003			
sub-01	ses-022	run-2	12	18	0	17	30	17	0.4	1.6361628571976303	1.9713518672494728	2.3642891719438035		2.336786363114028		5	2	2	3	2	7	7	2	7	9	9	5	0.7142857142857143	0.2222222222222222	0.2222222222222222	0.6	2.254786594399718	0.4630867239984209	2.832660351515514	1.9302650946557378	1.7916998704012972	2.349457802512916	2.7209288508568092	2.266791540284843	1.4721233759855323	4	8	18	0	0	0	16	1	1.2665842371233422	2.0827408252609905	1.915657388243714	2.3642891719438035		-0.16708343701727646			2.306473846935115	2.821786621976642	0	1	5	1	2	1	0	2	2	7	0	0	7	2	0	0		0.2053541130200038	2.254786594399718	0.7208193349768379	2.832660351515514	2.4602884849929296		1.665253399487142	2.349457802512916	2.7209288508568092			2.266791540284843	1.4721233759855323		
sub-01	ses-022	run-3	13	20	2	15	33	17	0.2762923351158645	0.9177652949015043	2.254616671715543	2.420580705132104	2.2937088150251697	2.2255728872902716	-0.039092143309626515	3	2	2	6	5	5	7	3	8	7	9	9	0.25735294117647056	0.1680672268907563	0.1045751633986928	0.5490196078431372	2.1239501013521456	3.2795511500362764	2.214012847035189	1.9918397390171154	-1.1556010486841308	2.7079023020444453	2.3090530862272756	2.2896585858889327	2.4330756866869834	4	9	19	1	1	1	15	0	0.9601411247785616	2.8650320595339895	1.9833209437962336	2.3437657423995115	3.880064997051363	-0.881711115737756	3.105993950020064	1.4814236800302751	2.2255728872902716		1	2	2	0	1	0	1	6	5	5	0	0	6	3	1	0	1.6442220830195708	3.2795511500362764	2.363814110518433		3.2568038550438345		1.1712218390265434	1.9918397390171154	2.7079023020444453	2.3090530862272756			2.024590850695194	2.4330756866869834	3.880064997051363	
sub-01	ses-022	run-4	11	16	1	17	27	18	0.35185185185185186	1.358999624108431	2.0415874938918708	2.2948106341040697	2.9393252369808067	2.079526365682183	-0.897737743088936	3	0	2	6	3	7	6	0	6	7	8	6	0.4444444444444444	-0.05555555555555555	0.19444444444444445	0.9444444444444444	1.8834791643312176		2.6560512594738976	1.9158204034781885		2.622584080988696	1.7045274855582346	2.8195875839652302		5	6	16	0	1	0	17	0	1.1497961512691703	2.3656121325735	1.7715669616571799	2.2948106341040697		-0.5940451709163199	2.9393252369808067		2.079526365682183		1	0	2	0	2	2	0	4	3	7	0	0	6	0	0	0	1.9154074080009025		1.8675150424963753		2.6560512594738976	2.300275367959401		1.7235929212375822	2.622584080988696	1.7045274855582346			2.8195875839652302			
sub-01	ses-022	run-5	14	21	1	18	35	19	0.3473684210526316	1.3665091555024702	1.9377218455127794	2.3159360726340688	3.227642383012011	2.0433578538470374	-1.2899205374992315	5	1	1	7	7	4	6	4	12	5	7	11	0.36403508771929827	0.1473684210526316	0.09022556390977443	0.5837320574162679	1.8414086840148098	2.014804397029806	3.570568885987157	1.7622413048697	-0.17339571301499634	2.2320090241620414	2.2085621575225334	2.4281938626745325	2.401795637510956	3	11	20	1	1	0	18	0	1.4541929578067256	2.789622384003209	1.7053853350153896	2.3069092380637315	2.49647276404081	-1.0842370489878193	3.227642383012011		2.0433578538470374		1	0	4	1	1	1	0	6	7	3	0	1	6	4	0	0	2.525979347005487		1.6702660182671405	2.014804397029806	3.570568885987157	2.272318919016982		1.6772283691784864	2.2320090241620414	2.1125919553497745		2.49647276404081	2.4281938626745325	2.401795637510956		
sub-01	ses-022	run-6	18	18	2	17	36	19	0.39473684210526316	1.2521195202652196	1.8007328488254801	2.0434847877091835	1.8130076804745487	1.92319126592771	-0.012274831649068618	6	1	0	11	7	4	6	1	13	5	6	12	0.35627530364372473	0.09473684210526317	-0.10526315789473684	0.8114035087719298	1.859741364659668	2.498670697009657		1.705097490353725	-0.6389293323499887	2.090700011703384	2.327149044490074	1.9297566413145948	1.2606900709937463	6	12	17	1	1	1	17	0	1.1891289593428123	2.446094608157105	1.4780519691596676	2.0162872524578677	2.5058428869815543	-0.9680426389974375	2.211059796956832	1.4149555639922653	1.92319126592771		1	1	5	0	0	4	0	7	7	3	0	1	6	1	0	0	2.603349581982485	2.498670697009657	1.7110197211951046			2.3936368424876218		1.311646431991498	2.090700011703384	2.2675844303262473		2.5058428869815543	1.9297566413145948	1.2606900709937463		
sub-01	ses-023	run-1	13	26	0	19	39	19	0.3333333333333333	1.5072042115573712	1.4545329105374034	1.957987942999017		2.060110166256415		6	0	2	5	0	13	12	1	6	13	14	6	1.0	0.0	0.14285714285714285	0.8333333333333334	1.4629135116647625		1.4496169045451097	1.44644259158149			1.9043954365413935	1.9772872114146631	2.4230993059603634	3	10	26	0	0	0	18	1	1.2834793101208248	2.381030664994995	1.176583584200126	1.957987942999017		-1.204447080794869			2.022407936829195	2.7387502959463745	1	0	5	0	1	1	1	4	0	13	0	0	12	1	0	0	2.379091106965205		1.279677992604674		2.185275540044529	2.5787253479752508	0.7139582690456905	1.1633719024830498		1.9043954365413935			1.9772872114146631	2.4230993059603634		
sub-01	ses-023	run-2	9	27	0	15	36	15	0.25	1.159424885619833	1.5020937175169153	2.0383758124162425		2.0112043775658446		4	1	1	3	3	10	11	3	7	11	12	6	0.5714285714285714	0.09090909090909091	0.08333333333333333	0.5	1.2642670082021503	3.2998706099670443	0.0093455940205728	1.71751974028534	-2.035603601764894	2.6955988909955977	2.2370624095732365	1.7069554245090963	1.9340721656397761	0	9	26	1	0	0	14	1	1.159424885619833		1.5020937175169153	1.9644788032775546	3.9596980500221264				2.1285075629648897	0.3689597819792141	0	0	4	1	0	0	1	3	3	9	0	1	11	3	0	0			1.2642670082021503	3.2998706099670443			0.0093455940205728	1.71751974028534	2.6955988909955977	2.0456584495233603		3.9596980500221264	1.7069554245090963	1.9340721656397761		
sub-01	ses-023	run-3	10	21	0	12	31	12	0.3225806451612903	1.2711698570191288	1.9034043167415065	2.3246160571753913		2.585173669025149		4	1	1	4	3	6	7	5	7	7	8	9	0.5714285714285714	0.14285714285714285	0.125	0.4444444444444444	1.699938026543247	3.6335990920150607	2.14903840306215	1.6129133915412162	-1.9336610654718136	1.2866190446851202	2.353873631022102	2.3422950573352055	2.887554575829762	4	6	18	3	0	0	12	0	0.866770037436962	2.1583464647829587	1.7334428847138714	2.38937329892328	1.9360726066880574	-0.42490358006908724			2.585173669025149		2	1	2	0	1	0	0	4	1	6	2	0	7	4	0	1	1.425374182027312	3.6335990920150607	1.974501871059182		2.14903840306215			1.6129133915412162	1.983469603997662	2.353873631022102	0.9381937650288492		2.3422950573352055	2.626485647285584		3.9318302900064737
sub-01	ses-023	run-4	5	18	1	15	23	16	0.15489130434782608	0.7530867328298375	1.9582482768744272	1.8606129082196625	1.4101348870946104	1.9999776199351387	0.5481133897798167	2	0	0	3	4	6	6	2	6	6	6	5	0.2708333333333333	-0.0625	-0.0625	0.5375	1.3821499226079332			2.342313846385423		1.1517014388169677	2.3025319915311493	1.8037757618927046	2.1231900360714633	0	5	16	2	0	1	13	2	0.7530867328298375		1.9582482768744272	1.9406090884291924	1.2206434665434216			1.4101348870946104	1.9868054805276931	2.0855965260835347	0	0	2	0	0	0	0	3	3	5	1	1	6	2	0	0			1.3821499226079332					2.342313846385423	1.3728988293993087	2.3724028566339994	0.4881092670699445	1.953177666016899	1.8037757618927046	2.1231900360714633		
sub-01	ses-023	run-5	14	20	0	17	34	17	0.4117647058823529	1.6665021293930633	2.019700277226512	1.9247634342189428		1.9704799396632335		7	1	1	5	4	6	5	5	11	7	6	10	0.6363636363636364	0.14285714285714285	0.16666666666666666	0.5	1.8630590345770404	2.961568383984272	3.3470659600058568	1.7851512590283505	-1.0985093494072318	2.0707990390132167	1.7692235270165835	1.863950528412132	2.0553957448331657	7	7	20	0	0	0	17	0	1.0687178720010495	2.5379389271472754	1.5014616273057482	1.9247634342189428		-1.0364772998415273			1.9704799396632335		3	1	4	0	1	2	0	3	4	6	0	0	5	5	0	0	2.088913590329085	2.961568383984272	1.693668117763007		3.3470659600058568	2.5950986875267716		1.2451863066960698	2.0707990390132167	1.7692235270165835			1.863950528412132	2.0553957448331657		
sub-01	ses-023	run-6	8	22	0	16	30	16	0.26666666666666666	1.2398061442115638	1.7162087467458331	1.6202874912732226		1.8250869344346585		4	0	0	4	4	4	6	8	8	4	6	12	0.5	0.0	0.0	0.3333333333333333	1.7897168457449872			1.642700647746679		1.7736420372535944	1.8869785479887007	1.3175579425149344	1.6373118514940135	1	7	20	2	0	0	16	0	1.1348185765400074	1.2552764919679618	1.7820562117141006	1.6879320391002128	0.9438420130033194	0.5267797197461388			1.8250869344346585		1	0	3	0	0	0	0	4	4	4	0	0	4	8	2	0	1.2552764919679618		1.9678636303373291					1.642700647746679	1.7736420372535944	1.8869785479887007			1.504415907270742	1.6373118514940135	0.9438420130033194	
sub-01	ses-024	run-1	12	28	0	20	40	20	0.3	1.4355634718320136	1.1284176643335393	1.8885661659290693		2.1651775572504053		6	0	0	6	0	14	14	0	6	14	14	6	1.0	0.0	0.0	1.0	1.1256592086667325			1.1311761200003463			1.8154935717861602	1.9616387600719787		0	12	24	4	0	0	19	1	1.4355634718320136		1.1284176643335393	1.837637071542166	2.1941407322504904				2.099721028474072	3.4088516040007377	0	0	6	0	0	0	0	6	0	11	0	3	13	0	1	0			1.1256592086667325					1.1311761200003463		1.651020458364142		2.4185616543335606	1.9955434365389555		1.5208779660012794	
