subject	session	TrialNumber	image_path	condition	image_nr	category_nr	exemplar_nr	test_image_nr	things_category_nr	things_image_nr	things_exemplar_nr	subcondition	repetition	run	onset	duration	response_mapping_flip_h	response_mapping_flip_v	onset_flip	offset_flip	keypresses	response	response_txt	error	response_confidence	response_time	duration_flip	ran	order	session_trial_time	atypical	atypical_log	exclude_session	delay_days	delay_seconds	trials_since_lastrep
06	ses-013	1	images_fmri/couch/couch_03s.jpg	seen	2079	174	3	None	423.0	6079.0	3.0	seen-between	2	5	3.0	2.98	False	False	3.0001559257507324	5.966145038604736	[['x', 4.318806886672974]]	2.0	seen	False	True	1.3188068866729736	2.965989112854004	1.0	0.0	1626292369.8156	False		False	7.0	0.0	517.0
06	ses-013	2	images_fmri/crutch/crutch_03s.jpg	seen	2247	188	3	None	453.0	6545.0	3.0	seen-between	2	5	7.47	2.98	True	False	7.466518878936768	10.449496984481812	[['a', 9.64497184753418]]	-2.0	unseen	True	True	2.17497184753418	2.982978105545044	1.0	1.0	1626292374.2820	False		False	7.0	0.0	338.0
06	ses-013	3	images_fmri/rug/rug_03s.jpg	seen	6387	533	3	None	1341.0	19070.0	3.0	seen-between-within	3	5	11.94	2.98	True	True	11.932699918746948	14.91596293449402	[['b', 13.142350912094116]]	2.0	seen	False	True	1.2023509120941167	2.9832630157470703	1.0	2.0	1626292378.7481	False		False	0.0	342.60120010375977	36.0
06	ses-013	4	images_fmri/zucchini/zucchini_04s.jpg	unseen	8632	720	4	None	1854.0	26098.0	4.0	unseen-between	1	5	16.41	2.98	True	True	16.3996479511261	19.382508993148804	[['a', 18.343695878982544]]	-2.0	unseen	False	True	1.933695878982544	2.982861042022705	1.0	3.0	1626292383.2151	False		False			
06	ses-013	5	images_fmri/magnifying_glass/magnifying_glass_03s.jpg	seen	4539	379	3	None	959.0	13664.0	3.0	seen-within-between	3	5	20.88	2.98	True	False	20.866256952285767	23.8490309715271	[['x', 23.371676921844482]]	2.0	seen	False	True	2.4916769218444834	2.982774019241333	1.0	4.0	1626292387.6817	False		False	7.0	0.0	276.0
06	ses-013	6	images_fmri/christmas_tree/christmas_tree_03s.jpg	seen	1755	147	3	None	342.0	4935.0	3.0	seen-between	2	5	25.35	2.98	True	False	25.349786043167114	28.31878685951233	[['x', 27.104925870895386]]	2.0	seen	False	True	1.7549258708953843	2.969000816345215	1.0	5.0	1626292392.1652	False		False	7.0	0.0	411.0
06	ses-013	7	images_fmri/record/record_04s.jpg	unseen	6196	517	4	None	1296.0	18434.0	4.0	unseen-between	1	5	29.82	2.98	False	True	29.82195281982422	32.80079793930054	[['y', 32.68307900428772]]	-2.0	unseen	False	True	2.8630790042877194	2.9788451194763184	1.0	6.0	1626292396.6374	False		False			
06	ses-013	8	images_fmri/polaroid/polaroid_03s.jpg	seen	5787	483	3	None	1213.0	17243.0	3.0	seen-within-between	3	5	34.29	2.98	True	False	34.28534293174744	37.267802000045776	[['x', 35.508628845214844]]	2.0	seen	False	True	1.2186288452148446	2.98245906829834	1.0	7.0	1626292401.1008	False		False	7.0	0.0	489.0
06	ses-013	9	images_fmri/birdcage/birdcage_03s.jpg	seen	651	55	3	None	131.0	2011.0	3.0	seen-within-between	3	5	38.76	2.98	False	True	38.75444483757019	41.73427295684815	[['b', 40.17560791969299]]	2.0	seen	False	True	1.4156079196929952	2.979828119277954	1.0	8.0	1626292405.5699	False		False	7.0	0.0	250.0
06	ses-013	10	images_fmri/brush/brush_04s.jpg	unseen	1048	88	4	None	206.0	3107.0	4.0	unseen-between	1	5	43.23	2.98	False	True	43.222731828689575	46.20067501068115	[['y', 45.58358693122864]]	-2.0	unseen	False	True	2.353586931228641	2.977943181991577	1.0	9.0	1626292410.0382	False		False			
06	ses-013	11	images_fmri/ping-pong_table/ping-pong_table_04s.jpg	seen	5632	470	4	None	1185.0	16856.0	4.0	seen-within	2	5	47.7	2.98	False	False	47.70069694519043	50.66988396644592	[['x', 49.097535848617554]]	2.0	seen	False	True	1.3975358486175509	2.969187021255493	1.0	10.0	1626292414.5161	False		False	0.0	329.20499992370605	33.0
06	ses-013	12	images_fmri/mousetrap/mousetrap_04n.jpg	seen	4948	413	4	None	1030.0	14682.0	4.0	seen-within	2	5	52.17	2.98	False	False	52.17309594154358	55.15056800842285	[['x', 53.58779501914978]]	2.0	seen	False	True	1.4177950191497786	2.9774720668792725	1.0	11.0	1626292418.9885	False		False	0.0	485.66340017318726	68.0
06	ses-013	13	images_fmri/clarinet/clarinet_04s.jpg	unseen	1780	149	4	None	351.0	5078.0	4.0	unseen-between	1	5	56.64	2.98	False	True	56.639206886291504	59.61714100837708	[['y', 59.58233690261841]]	-2.0	unseen	False	True	2.942336902618408	2.9779341220855717	1.0	12.0	1626292423.4546	False		False			
06	ses-013	14	images_fmri/snorkel/snorkel_04s.jpg	seen	6904	576	4	None	1479.0	20955.0	4.0	seen-within	2	5	61.11	2.98	True	True	61.10007095336914	64.08365392684937	[['b', 62.96821594238281]]	2.0	seen	False	True	1.858215942382813	2.9835829734802246	1.0	13.0	1626292427.9155	False		False	0.0	736.5455000400543	97.0
06	ses-013	15	images_fmri/asparagus/asparagus_03s.jpg	seen	231	20	3	None	43.0	594.0	3.0	seen-between-within	3	5	65.58	2.98	True	False	65.58361601829529	68.55016589164734	[['x', 66.5775978565216]]	2.0	seen	False	True	0.9975978565216082	2.966549873352051	1.0	14.0	1626292432.3990	False		False	0.0	1256.1203999519348	190.0
06	ses-013	16	images_fmri/coat/coat_03s.jpg	seen	1839	154	3	None	370.0	5338.0	3.0	seen-between	2	5	70.05	2.98	True	True	70.05373096466064	73.01651191711426	[['b', 72.33920001983643]]	2.0	seen	False	True	2.2892000198364286	2.9627809524536133	1.0	15.0	1626292436.8692	False		False	7.0	0.0	262.0
06	ses-013	17	images_fmri/ribbon/ribbon_03s.jpg	seen	6267	523	3	None	1309.0	18633.0	3.0	seen-within-between	3	5	74.52	2.98	True	False	74.516676902771	77.50026202201843	[['x', 77.34547781944275]]	2.0	seen	False	True	2.825477819442753	2.9835851192474365	1.0	16.0	1626292441.3321	False		False	7.0	0.0	305.0
06	ses-013	18	images_fmri/cookie/cookie_03s.jpg	seen	2007	168	3	None	401.0	5765.0	3.0	seen-between	2	5	78.99	2.98	False	False	78.98336887359619	81.96662902832031	[['a', 81.92925596237183]]	1.0	seen	False	False	2.9392559623718317	2.983260154724121	1.0	17.0	1626292445.7988	False		False	7.0	0.0	413.0
06	ses-013	19	images_fmri/coat/coat_03s.jpg	seen	1839	154	3	None	370.0	5338.0	3.0	seen-between-within	3	5	83.46	2.98	False	False	83.4497389793396	86.43821787834167	[['x', 84.38978481292725]]	2.0	seen	False	True	0.9297848129272523	2.988478899002075	1.0	18.0	1626292450.2652	False		False	0.0	13.395999908447266	3.0
06	ses-013	20	images_fmri/horse/horse_03s.jpg	seen	3819	319	3	None	799.0	11423.0	3.0	seen-between-within	3	5	87.92999999999998	2.98	False	True	87.93777084350586	90.89986681938171	[['b', 89.07560586929321]]	2.0	seen	False	True	1.1456058692932345	2.9620959758758545	1.0	19.0	1626292454.7532	False		False	0.0	373.90760016441345	43.0
06	ses-013	21	images_fmri/garbage/garbage_04s.jpg	unseen	3160	264	4	None	656.0	9422.0	4.0	unseen-between	1	5	92.4	2.98	True	True	92.4024019241333	95.38299703598022	[['a', 94.42029285430908]]	-2.0	unseen	False	True	2.0202928543090763	2.980595111846924	1.0	20.0	1626292459.2178	False		False			
06	ses-013	22	images_fmri/playing_card/playing_card_03s.jpg	seen	5715	477	3	None	1200.0	17053.0	3.0	seen-between-within	3	5	96.87	2.98	True	True	96.86610388755798	99.84930396080016	[['b', 99.49927687644958]]	2.0	seen	False	True	2.6292768764495804	2.9832000732421875	1.0	21.0	1626292463.6815	False		False	0.0	906.4080998897552	135.0
06	ses-013	23	images_fmri/toolbox/toolbox_03s.jpg	seen	7827	653	3	None	1678.0	23680.0	3.0	seen-between	2	5	101.34	2.98	False	False	101.33268904685974	104.31576299667358	[['y', 103.47162795066833]]	-2.0	unseen	True	True	2.131627950668332	2.9830739498138428	1.0	22.0	1626292468.1481	False		False	7.0	0.0	462.0
06	ses-013	24	images_fmri/cookie/cookie_03s.jpg	seen	2007	168	3	None	401.0	5765.0	3.0	seen-between-within	3	5	105.81	2.98	False	True	105.79906296730042	108.78241491317748	[['b', 107.12438893318176]]	2.0	seen	False	True	1.3143889331817604	2.983351945877075	1.0	23.0	1626292472.6145	False		False	0.0	26.8157000541687	6.0
06	ses-013	25	images_fmri/blowtorch/blowtorch_03s.jpg	seen	759	64	3	None	149.0	2276.0	3.0	seen-between	2	5	110.28	2.98	True	False	110.28601598739624	113.24890899658205	[['a', 112.55263495445251]]	-2.0	unseen	True	True	2.272634954452513	2.962893009185791	1.0	24.0	1626292477.1014	False		False	7.0	0.0	598.0
06	ses-013	26	images_fmri/pistachio/pistachio_04s.jpg	unseen	5656	472	4	None	1189.0	16908.0	4.0	unseen-within	1	5	114.75	2.98	True	False	114.74887681007384	117.73223495483398	[['a', 117.61059498786926]]	-2.0	unseen	False	True	2.8605949878692627	2.983358144760132	1.0	25.0	1626292481.5643	False		False			
06	ses-013	27	images_fmri/christmas_tree/christmas_tree_03s.jpg	seen	1755	147	3	None	342.0	4935.0	3.0	seen-between-within	3	5	119.22	2.98	True	False	119.21545100212096	122.19861602783205	[['x', 120.18350481987]]	2.0	seen	False	True	0.9635048198699964	2.98316502571106	1.0	26.0	1626292486.0309	False		False	0.0	93.86570000648499	21.0
06	ses-013	28	images_fmri/hay/hay_04s.jpg	unseen	3676	307	4	None	762.0	10912.0	4.0	unseen-between	1	5	123.69	2.98	False	False	123.68383002281188	126.66521883010864	[['y', 125.41443681716919]]	-2.0	unseen	False	True	1.7244368171691915	2.981388807296753	1.0	27.0	1626292490.4993	False		False			
06	ses-013	29	images_fmri/punching_bag/punching_bag_04s.jpg	unseen	6028	503	4	None	1257.0	17905.0	4.0	unseen-between	1	5	128.16	2.98	False	True	128.1535198688507	131.1321358680725	[['y', 130.79918003082275]]	-2.0	unseen	False	True	2.6391800308227573	2.9786159992218018	1.0	28.0	1626292494.9690	False		False			
06	ses-013	30	images_fmri/chest1/chest1_04s.jpg	unseen	1648	138	4	None	320.0	4644.0	4.0	unseen-between	1	5	132.63	2.98	True	True	132.63232493400574	135.59869694709778	[['a', 134.11242485046387]]	-2.0	unseen	False	True	1.4824248504638715	2.966372013092041	1.0	29.0	1626292499.4478	False		False			
06	ses-013	31	images_fmri/wheelbarrow/wheelbarrow_04s.jpg	unseen	8428	703	4	None	1808.0	25467.0	4.0	unseen-between	1	5	137.1	2.98	False	True	137.10423302650452	140.08205890655518	[['y', 139.5320429801941]]	-2.0	unseen	False	True	2.432042980194097	2.977825880050659	1.0	30.0	1626292503.9197	False		False			
06	ses-013	32	images_fmri/gauze/gauze_04s.jpg	unseen	3208	268	4	None	665.0	9538.0	4.0	unseen-within	1	5	141.57	2.98	True	False	141.56491994857788	144.54834985733032	[['a', 143.6700599193573]]	-2.0	unseen	False	True	2.100059919357306	2.9834299087524414	1.0	31.0	1626292508.3804	False		False			
06	ses-013	33	images_fmri/warthog/warthog_03s.jpg	seen	8331	695	3	None	1782.0	25118.0	3.0	seen-within-between	3	5	146.04	2.98	True	True	146.03194093704224	149.01679587364197	[['b', 149.3119659423828]]	2.0	seen	False	True	3.2719659423828205	2.9848549365997314	1.0	32.0	1626292512.8474	False		False	7.0	0.0	339.0
06	ses-013	34	images_fmri/rice/rice_03s.jpg	seen	6279	524	3	None	1310.0	18648.0	3.0	seen-between-within	3	5	150.51	2.98	False	True	150.49804496765137	153.48129987716675	[['b', 151.48194098472595]]	2.0	seen	False	True	0.9719409847259612	2.983254909515381	1.0	33.0	1626292517.3135	False		False	0.0	812.5256998538971	114.0
06	ses-013	35	images_fmri/tie/tie_04s.jpg	unseen	7708	643	4	None	1659.0	23417.0	4.0	unseen-within	1	5	154.98	2.98	True	True	154.98523998260498	157.94788885116577	[['y', 157.84610390663147]]	1.0	seen	True	False	2.86610390663148	2.962648868560791	1.0	34.0	1626292521.8007	False		False			
06	ses-013	36	images_fmri/puck/puck_04s.jpg	unseen	5980	499	4	None	1246.0	17719.0	4.0	unseen-between	1	5	159.45	2.98	False	True	159.44823384284973	162.43111300468445	[['b', 161.3499619960785]]	2.0	seen	True	True	1.8999619960785024	2.982879161834717	1.0	35.0	1626292526.2637	False		False			
06	ses-013	37	images_fmri/rhubarb/rhubarb_03s.jpg	seen	6255	522	3	None	1308.0	18620.0	3.0	seen-within-between	3	5	163.92	2.98	True	False	163.91456198692322	166.8979308605194	[['x', 165.1659939289093]]	2.0	seen	False	True	1.2459939289093145	2.9833688735961914	1.0	36.0	1626292530.7300	False		False	7.0	0.0	364.0
06	ses-013	38	images_fmri/granola/granola_04s.jpg	seen	3376	282	4	None	702.0	10054.0	4.0	seen-within	2	5	168.39	2.98	False	True	168.38414597511292	171.3644700050354	[['b', 169.4969038963318]]	2.0	seen	False	True	1.1069038963318008	2.9803240299224854	1.0	37.0	1626292535.1996	False		False	0.0	396.2386999130249	48.0
06	ses-013	39	images_fmri/toolbox/toolbox_03s.jpg	seen	7827	653	3	None	1678.0	23680.0	3.0	seen-between-within	3	5	172.86	2.98	False	False	172.84880781173706	175.83069491386414	[['x', 174.43944692611694]]	2.0	seen	False	True	1.5794469261169295	2.981887102127075	1.0	38.0	1626292539.6642	False		False	0.0	71.51610016822815	16.0
06	ses-013	40	images_fmri/tie/tie_04s.jpg	seen	7708	643	4	None	1659.0	23417.0	4.0	seen-within	2	5	177.32999999999996	2.98	True	False	177.33094191551208	180.29774498939517	[['x', 178.83569192886353]]	2.0	seen	False	True	1.5056919288635695	2.9668030738830566	1.0	39.0	1626292544.1464	False		False	0.0	22.34570002555847	5.0
06	ses-013	41	images_fmri/joystick/joystick_03s.jpg	seen	4035	337	3	None	853.0	12202.0	3.0	seen-between-within	3	5	181.8	2.98	False	False	181.8007199764252	184.78089690208435	[['x', 182.83440399169922]]	2.0	seen	False	True	1.0344039916992074	2.98017692565918	1.0	40.0	1626292548.6162	False		False	0.0	1296.3396999835968	199.0
06	ses-013	42	images_fmri/closet/closet_04s.jpg	unseen	1828	153	4	None	361.0	5217.0	4.0	unseen-within	1	5	186.27	2.98	False	True	186.26794004440308	189.25136804580688	[['b', 190.07475185394287]]	2.0	seen	True	True	3.804751853942861	2.9834280014038086	1.0	41.0	1626292553.0834	False		False			
06	ses-013	43	images_fmri/gramophone/gramophone_04s.jpg	seen	3352	280	4	None	700.0	10023.0	4.0	seen-within	2	5	190.74	2.98	False	True	190.73039984703064	193.71408486366272	[['b', 191.6798059940338]]	2.0	seen	False	True	0.9398059940338044	2.98368501663208	1.0	42.0	1626292557.5458	False		False	0.0	606.3357999324799	95.0
06	ses-013	44	images_fmri/barrel/barrel_03s.jpg	seen	411	35	3	None	77.0	1138.0	3.0	seen-between	2	5	195.21	2.98	False	False	195.202253818512	198.18035888671875	[['x', 196.24902081489563]]	2.0	seen	False	True	1.039020814895622	2.978105068206787	1.0	43.0	1626292562.0177	False		False	7.0	0.0	565.0
06	ses-013	45	images_fmri/buggy/buggy_04s.jpg	seen	1084	91	4	None	214.0	3213.0	4.0	seen-within	2	5	199.68	2.98	True	True	199.68337297439572	202.64723587036133	[['b', 201.13604283332825]]	2.0	seen	False	True	1.4560428333282402	2.963862895965576	1.0	44.0	1626292566.4988	False		False	0.0	1738.6582999229431	276.0
06	ses-013	46	images_fmri/lectern/lectern_04s.jpg	unseen	4276	357	4	None	909.0	13001.0	4.0	unseen-between	1	5	204.15	2.98	False	False	204.1520619392395	207.13022589683533	[['y', 206.7428069114685]]	-2.0	unseen	False	True	2.5928069114685	2.978163957595825	1.0	45.0	1626292570.9675	False		False			
06	ses-013	47	images_fmri/paintbrush/paintbrush_04s.jpg	unseen	5260	439	4	None	1098.0	15631.0	4.0	unseen-within	1	5	208.62	2.98	True	False	208.6133139133453	211.59666895866397	[['a', 210.34164190292358]]	-2.0	unseen	False	True	1.7216419029235794	2.9833550453186035	1.0	46.0	1626292575.4287	False		False			
06	ses-013	48	images_fmri/omelet/omelet_04n.jpg	unseen	5164	431	4	None	1077.0	15311.0	4.0	unseen-within	1	5	213.09	2.98	True	True	213.08319401741028	216.06319284439087	[['a', 215.93402886390686]]	-2.0	unseen	False	True	2.844028863906857	2.979998826980591	1.0	47.0	1626292579.8986	False		False			
06	ses-013	49	images_fmri/crutch/crutch_03s.jpg	seen	2247	188	3	None	453.0	6545.0	3.0	seen-between-within	3	5	217.56	2.98	False	False	217.56324887275696	220.5296859741211	[['x', 219.13304781913757]]	2.0	seen	False	True	1.573047819137571	2.966437101364136	1.0	48.0	1626292584.3787	False		False	0.0	210.09669995307922	47.0
06	ses-013	50	images_fmri/lock/lock_04s.jpg	seen	4492	375	4	None	941.0	13433.0	4.0	seen-within	2	5	222.03	2.98	True	True	222.03364086151123	225.01315093040463	[['b', 223.63192081451416]]	2.0	seen	False	True	1.601920814514159	2.9795100688934326	1.0	49.0	1626292588.8491	False		False	0.0	906.4158000946045	135.0
06	ses-013	51	images_fmri/pizza/pizza_03s.jpg	seen	5667	473	3	None	1193.0	16962.0	3.0	seen-within-between	3	5	226.5	2.98	False	True	226.50126385688785	229.47998690605164	[['y', 228.3875789642334]]	-2.0	unseen	True	True	1.8875789642333984	2.9787230491638184	1.0	50.0	1626292593.3167	False		False	7.0	0.0	535.0
06	ses-013	52	images_fmri/umbrella/umbrella_04s.jpg	unseen	8116	677	4	None	1744.0	24580.0	4.0	unseen-within	1	5	230.97	2.98	True	False	230.96298098564148	233.94618391990664	[['a', 233.4148190021515]]	-2.0	unseen	False	True	2.4448190021514904	2.9832029342651367	1.0	51.0	1626292597.7784	False		False			
06	ses-013	53	images_fmri/thermos/thermos_03s.jpg	seen	7647	638	3	None	1648.0	23267.0	3.0	seen-within-between	3	5	235.44	2.98	False	False	235.42958903312683	238.4130778312683	[['y', 236.7005808353424]]	-2.0	unseen	True	True	1.2605808353424095	2.9834887981414795	1.0	52.0	1626292602.2450	False		False	7.0	0.0	598.0
06	ses-013	54	images_fmri/meatball/meatball_04s.jpg	unseen	4732	395	4	None	990.0	14099.0	4.0	unseen-between	1	5	239.91	2.98	False	True	239.91587281227112	242.88008499145508	[['y', 242.66421699523926]]	-2.0	unseen	False	True	2.754216995239261	2.96421217918396	1.0	53.0	1626292606.7313	False		False			
06	ses-013	55	images_fmri/llama/llama_04n.jpg	unseen	4468	373	4	None	939.0	13408.0	4.0	unseen-within	1	5	244.38	2.98	True	True	244.37932682037356	247.3626799583435	[['a', 246.76286697387695]]	-2.0	unseen	False	True	2.3828669738769577	2.9833531379699707	1.0	54.0	1626292611.1948	False		False			
06	ses-013	56	images_fmri/pistachio/pistachio_04s.jpg	seen	5656	472	4	None	1189.0	16908.0	4.0	seen-within	2	5	248.85	2.98	True	True	248.8456699848175	251.82905292510983	[['b', 249.96745681762695]]	2.0	seen	False	True	1.1174568176269588	2.9833829402923584	1.0	55.0	1626292615.6611	False		False	0.0	134.09679985046387	30.0
06	ses-013	57	images_fmri/suit/suit_03s.jpg	seen	7335	612	3	None	1581.0	22321.0	3.0	seen-between-within	3	5	253.32	2.98	False	True	253.31727290153503	256.2955570220947	[['b', 255.19230699539185]]	2.0	seen	False	True	1.8723069953918523	2.9782841205596924	1.0	56.0	1626292620.1327	False		False	0.0	664.4532999992371	108.0
06	ses-013	58	images_fmri/closet/closet_04s.jpg	seen	1828	153	4	None	361.0	5217.0	4.0	seen-within	2	5	257.79	2.98	True	False	257.78272700309753	260.762069940567	[['x', 258.91434502601624]]	2.0	seen	False	True	1.1243450260162149	2.9793429374694824	1.0	57.0	1626292624.5982	False		False	0.0	71.51480007171631	16.0
06	ses-013	59	images_fmri/paintbrush/paintbrush_04s.jpg	seen	5260	439	4	None	1098.0	15631.0	4.0	seen-within	2	5	262.26	2.98	False	False	262.2658269405365	265.22876596450806	[['x', 263.99834394454956]]	2.0	seen	False	True	1.7383439445495696	2.9629390239715576	1.0	58.0	1626292629.0813	False		False	0.0	53.652600049972534	12.0
06	ses-013	60	images_fmri/gauze/gauze_04s.jpg	seen	3208	268	4	None	665.0	9538.0	4.0	seen-within	2	5	266.73	2.98	True	False	266.73204493522644	269.71184182167053	[['x', 267.8192448616028]]	2.0	seen	False	True	1.089244861602765	2.979796886444092	1.0	59.0	1626292633.5475	False		False	0.0	125.16709995269775	28.0
