subject	session	TrialNumber	image_path	condition	image_nr	category_nr	exemplar_nr	test_image_nr	things_category_nr	things_image_nr	things_exemplar_nr	subcondition	repetition	run	onset	duration	response_mapping_flip_h	response_mapping_flip_v	onset_flip	offset_flip	keypresses	response	response_txt	error	response_confidence	response_time	duration_flip	ran	order	session_trial_time	atypical	atypical_log	exclude_session	delay_days	delay_seconds	trials_since_lastrep
02	ses-028	1	images_fmri/rabbit/rabbit_01b.jpg	unseen	6049	505	1	None	1266.0	18037.0	1.0	unseen-within	1	4	3.0	2.98	False	True	3.00202721497044	5.9831794269848615	[['x', 5.197694877977483]]	-1.0	unseen	False	False	2.197694877977483	2.981152212014422	1.0	0.0	748806.5585	False		False			
02	ses-028	2	images_fmri/petal/petal_01b.jpg	seen	5509	460	1	None	1159.0	16486.0	1.0	seen-between-within	3	4	7.47	2.98	False	True	7.470688062952831	10.451133464928716	[['b', 8.488426232943311]]	2.0	seen	False	True	1.0184262329433116	2.980445401975885	1.0	1.0	748811.0272	False		False	0.0	1049.1753000000026	173.0
02	ses-028	3	images_fmri/pudding/pudding_01b.jpg	seen	5989	500	1	None	1247.0	17728.0	1.0	seen-within-between	3	4	11.94	2.98	False	True	11.93547281890642	14.91563075990416	[['a', 13.915360559010878]]	1.0	seen	False	False	1.9753605590108787	2.980157940997742	1.0	2.0	748815.4920	False		False	7.0	0.0	380.0
02	ses-028	4	images_fmri/manhole/manhole_01b.jpg	unseen	4609	385	1	None	968.0	13793.0	1.0	unseen-between	1	4	16.41	2.98	True	False	16.397788621950895	19.383058252977207	[['y', 17.850421232986264]]	1.0	seen	True	False	1.4404212329862638	2.9852696310263127	1.0	3.0	748819.9543	False		False			
02	ses-028	5	images_fmri/broom/broom_01b.jpg	unseen	1021	86	1	None	204.0	3074.0	1.0	unseen-between	1	4	20.88	2.98	True	False	20.884875985910185	23.84853002696764	[['b', 23.747320300899446]]	-1.0	unseen	False	False	2.867320300899447	2.963654041057453	1.0	4.0	748824.4414	False		False			
02	ses-028	6	images_fmri/dough/dough_01b.jpg	seen	2545	213	1	None	514.0	7446.0	1.0	seen-between-within	3	4	25.35	2.98	False	True	25.34975929092616	28.332360500935465	[['b', 26.341553775011562]]	2.0	seen	False	True	0.9915537750115604	2.9826012100093067	1.0	5.0	748828.9062	False		False	0.0	193.72989999991842	22.0
02	ses-028	7	images_fmri/earring/earring_01b.jpg	unseen	2665	223	1	None	541.0	7848.0	1.0	unseen-between	1	4	29.82	2.98	False	False	29.818076537922025	32.79767550295219	[['a', 31.681646610959433]]	1.0	seen	True	False	1.8616466109594327	2.9795989650301635	1.0	6.0	748833.3746	False		False			
02	ses-028	8	images_fmri/solar_panel/solar_panel_01b.jpg	seen	6961	581	1	None	1494.0	21139.0	1.0	seen-between-within	3	4	34.29	2.98	True	True	34.286214972962625	37.26487906195689	[['b', 35.32747021096293]]	2.0	seen	False	True	1.0374702109629297	2.9786640889942646	1.0	7.0	748837.8427	False		False	0.0	265.2455000000773	38.0
02	ses-028	9	images_fmri/boxing_gloves/boxing_gloves_01b.jpg	unseen	913	77	1	None	184.0	2784.0	1.0	unseen-within	1	4	38.76	2.98	False	False	38.75247637100984	41.7323466349626	[['b', 40.276868138927966]]	-1.0	unseen	False	False	1.5168681389279683	2.979870263952762	1.0	8.0	748842.3090	False		False			
02	ses-028	10	images_fmri/locker/locker_01b.jpg	seen	4501	376	1	None	942.0	13442.0	1.0	seen-within	2	4	43.23	2.98	False	True	43.23412337701302	46.19850027794018	[['b', 44.2834096159786]]	2.0	seen	False	True	1.0534096159786015	2.964376900927164	1.0	9.0	748846.7906	False		False	0.0	762.0844999999972	129.0
02	ses-028	11	images_fmri/inhaler/inhaler_01b.jpg	unseen	3937	329	1	None	829.0	11852.0	1.0	unseen-within	1	4	47.7	2.98	True	False	47.69790918694344	50.68139445595443	[['b', 49.54871516500134]]	-1.0	unseen	False	False	1.8487151650013371	2.9834852690109983	1.0	10.0	748851.2544	False		False			
02	ses-028	12	images_fmri/retainer/retainer_01b.jpg	unseen	6217	519	1	None	1304.0	18562.0	1.0	unseen-within	1	4	52.17	2.98	False	True	52.1696327929385	55.15223841695115	[['a', 55.24920534295961]]	1.0	seen	True	False	3.079205342959611	2.982605624012649	1.0	11.0	748855.7261	False		False			
02	ses-028	13	images_fmri/revolver/revolver_01s.jpg	seen	6229	520	1	None	1305.0	18574.0	1.0	seen-between	2	4	56.64	2.98	True	True	56.63020402798429	59.61766805895604	[['b', 59.643549631000496]]	2.0	seen	False	True	3.003549631000496	2.9874640309717506	1.0	12.0	748860.1867	False		False	7.0	0.0	342.0
02	ses-028	14	images_fmri/inhaler/inhaler_01b.jpg	seen	3937	329	1	None	829.0	11852.0	1.0	seen-within	2	4	61.11	2.98	False	False	61.1148279060144	64.08569496299606	[['x', 62.13210951490328]]	2.0	seen	False	True	1.0221095149032775	2.9708670569816604	1.0	13.0	748864.6713	False		False	0.0	13.41690000006929	3.0
02	ses-028	15	images_fmri/revolver/revolver_01s.jpg	seen	6229	520	1	None	1305.0	18574.0	1.0	seen-between-within	3	4	65.58	2.98	False	False	65.58432721695863	68.55166915198788	[['x', 66.66032550600357]]	2.0	seen	False	True	1.0803255060035752	2.9673419350292534	1.0	14.0	748869.1408	False		False	0.0	8.954100000089966	2.0
02	ses-028	16	images_fmri/altar/altar_01b.jpg	unseen	73	7	1	None	17.0	232.0	1.0	unseen-within	1	4	70.05	2.98	True	False	70.05205364199355	73.03091582190245	[['y', 71.91935100289993]]	1.0	seen	True	False	1.8693510028999327	2.978862179908901	1.0	15.0	748873.6085	False		False			
02	ses-028	17	images_fmri/mast/mast_01b.jpg	unseen	4681	391	1	None	982.0	13992.0	1.0	unseen-between	1	4	74.52	2.98	False	True	74.51790052093565	77.498703603982	[['a', 77.45093715295661]]	1.0	seen	True	False	2.9309371529566164	2.9808030830463395	1.0	16.0	748878.0744	False		False			
02	ses-028	18	images_fmri/book/book_01b.jpg	seen	841	71	1	None	166.0	2526.0	1.0	seen-within-between	3	4	78.99	2.98	True	False	78.98045165196527	81.96293008991051	[['x', 80.48302444594447]]	2.0	seen	False	True	1.4930244459444708	2.9824784379452467	1.0	17.0	748882.5369	False		False	7.0	0.0	228.0
02	ses-028	19	images_fmri/iguana/iguana_01b.jpg	seen	3925	328	1	None	826.0	11802.0	1.0	seen-between	2	4	83.46	2.98	True	True	83.46711073897313	86.42974272498395	[['x', 84.78457914898172]]	-1.0	unseen	True	False	1.3245791489817265	2.96263198601082	1.0	18.0	748887.0236	False		False	7.0	0.0	254.0
02	ses-028	20	images_fmri/football_helmet/football_helmet_01b.jpg	seen	3061	256	1	None	631.0	9100.0	1.0	seen-between	2	4	87.92999999999998	2.98	False	True	87.93429188092705	90.91420554695652	[['b', 89.75193858298007]]	2.0	seen	False	True	1.821938582980096	2.9799136660294607	1.0	19.0	748891.4908	False		False	7.0	0.0	348.0
02	ses-028	21	images_fmri/hamster/hamster_01b.jpg	unseen	3613	302	1	None	744.0	10655.0	1.0	unseen-between	1	4	92.4	2.98	True	False	92.40006047894713	95.3812409399543	[['y', 94.5350163349649]]	1.0	seen	True	False	2.135016334964888	2.9811804610071704	1.0	20.0	748895.9565	False		False			
02	ses-028	22	images_fmri/pie/pie_01b.jpg	seen	5557	464	1	None	1169.0	16627.0	1.0	seen-between	2	4	96.87	2.98	True	False	96.86652945890091	99.84669862501325	[['x', 98.72524201392662]]	2.0	seen	False	True	1.8552420139266133	2.980169166112318	1.0	21.0	748900.4230	False		False	7.0	0.0	525.0
02	ses-028	23	images_fmri/eyepiece/eyepiece_01s.jpg	unseen	2821	236	1	None	569.0	8232.0	1.0	unseen-between	1	4	101.34	2.98	True	False	101.33095729898196	104.31301474594513	[['y', 103.369959344971]]	1.0	seen	True	False	2.0299593449709903	2.982057446963154	1.0	22.0	748904.8874	False		False			
02	ses-028	24	images_fmri/scissors/scissors_01s.jpg	seen	6505	543	1	None	1380.0	19595.0	1.0	seen-between-within	3	4	105.81	2.98	False	True	105.81521620298736	108.7858385000145	[['b', 106.73408671293873]]	2.0	seen	False	True	0.9240867129387312	2.9706222970271483	1.0	23.0	748909.3717	False		False	0.0	247.37900000007357	34.0
02	ses-028	25	images_fmri/rifle/rifle_01s.jpg	seen	6289	525	1	None	1312.0	18672.0	1.0	seen-between	2	4	110.28	2.98	True	True	110.28531972691415	113.26369693293236	[['b', 111.6840628599748]]	2.0	seen	False	True	1.4040628599748004	2.9783772060181946	1.0	24.0	748913.8418	False		False	7.0	0.0	456.0
02	ses-028	26	images_fmri/paintbrush/paintbrush_01b.jpg	seen	5257	439	1	None	1098.0	15628.0	1.0	seen-between-within	3	4	114.75	2.98	False	True	114.75029596895912	117.729439239949	[['b', 116.01699818496127]]	2.0	seen	False	True	1.2669981849612668	2.97914327098988	1.0	25.0	748918.3068	False		False	0.0	708.4485000000568	117.0
02	ses-028	27	images_fmri/altar/altar_01b.jpg	seen	73	7	1	None	17.0	232.0	1.0	seen-within	2	4	119.22	2.98	True	False	119.21694759791716	122.20037131698336	[['x', 120.21214525389951]]	2.0	seen	False	True	0.9921452538995084	2.983423719066195	1.0	26.0	748922.7734	False		False	0.0	49.164899999974295	11.0
02	ses-028	28	images_fmri/drawer/drawer_01b.jpg	seen	2581	216	1	None	517.0	7501.0	1.0	seen-within-between	3	4	123.69	2.98	False	True	123.68183303100524	126.66297069191933	[['b', 124.69288323796354]]	2.0	seen	False	True	1.0028832379635446	2.9811376609141007	1.0	27.0	748927.2383	False		False	7.0	0.0	495.0
02	ses-028	29	images_fmri/nail_polish/nail_polish_01b.jpg	seen	5005	418	1	None	1050.0	14947.0	1.0	seen-within-between	3	4	128.16	2.98	True	False	128.16354348801542	131.12835884001106	[['x', 129.4048786079511]]	2.0	seen	False	True	1.244878607951108	2.9648153519956395	1.0	28.0	748931.7200	False		False	7.0	0.0	444.0
02	ses-028	30	images_fmri/groundhog/groundhog_01b.jpg	unseen	3481	291	1	None	719.0	10299.0	1.0	unseen-between	1	4	132.63	2.98	True	False	132.62925294192974	135.61366612592246	[['y', 134.23860715294722]]	1.0	seen	True	False	1.6086071529472292	2.9844131839927286	1.0	29.0	748936.1857	False		False			
02	ses-028	31	images_fmri/mousetrap/mousetrap_01b.jpg	seen	4945	413	1	None	1030.0	14679.0	1.0	seen-within-between	3	4	137.1	2.98	True	True	137.0952158299042	140.07966718892567	[['b', 138.2019467309583]]	2.0	seen	False	True	1.1019467309583035	2.9844513590214774	1.0	30.0	748940.6517	False		False	7.0	0.0	306.0
02	ses-028	32	images_fmri/wine/wine_01b.jpg	unseen	8497	709	1	None	1824.0	25674.0	1.0	unseen-within	1	4	141.57	2.98	False	True	141.56641863193363	144.54554172896314	[['x', 142.86378784896806]]	-1.0	unseen	False	False	1.2937878489680656	2.9791230970295146	1.0	31.0	748945.1229	False		False			
02	ses-028	33	images_fmri/kebab/kebab_01b.jpg	seen	4093	342	1	None	866.0	12380.0	1.0	seen-within-between	3	4	146.04	2.98	False	True	146.03259928699117	149.0135301949922	[['b', 147.77704730292317]]	2.0	seen	False	True	1.7370473029231732	2.980930908001028	1.0	32.0	748949.5891	False		False	7.0	0.0	310.0
02	ses-028	34	images_fmri/cassette/cassette_01b.jpg	seen	1465	123	1	None	284.0	4150.0	1.0	seen-within	2	4	150.51	2.98	False	False	150.51419580797665	153.48207506991457	[['x', 151.49996455397923]]	2.0	seen	False	True	0.9899645539792346	2.967879261937924	1.0	33.0	748954.0707	False		False	0.0	350.1915000000736	57.0
02	ses-028	35	images_fmri/cupcake/cupcake_01b.jpg	seen	2305	193	1	None	462.0	6688.0	1.0	seen-within-between	3	4	154.98	2.98	False	False	154.98209554399364	157.96357600798365	[['a', 157.25062060391065]]	1.0	seen	False	False	2.2706206039106576	2.9814804639900103	1.0	34.0	748958.5386	False		False	7.0	0.0	341.0
02	ses-028	36	images_fmri/motorcycle/motorcycle_01b.jpg	unseen	4921	411	1	None	1026.0	14617.0	1.0	unseen-within	1	4	159.45	2.98	False	True	159.44886273599695	162.42848888994197	[['x', 161.5029930199962]]	-1.0	unseen	False	False	2.0529930199962223	2.9796261539449915	1.0	35.0	748963.0054	False		False			
02	ses-028	37	images_fmri/pom-pom/pom-pom_01b.jpg	unseen	5797	484	1	None	1219.0	17341.0	1.0	unseen-between	1	4	163.92	2.98	False	False	163.9149242049316	166.8952277569333	[['a', 165.84262681892142]]	1.0	seen	True	False	1.9226268189214293	2.9803035520017147	1.0	36.0	748967.4714	False		False			
02	ses-028	38	images_fmri/chili/chili_01b.jpg	unseen	1681	141	1	None	328.0	4744.0	1.0	unseen-within	1	4	168.39	2.98	True	False	168.380266213906	171.36078204296064	[['b', 170.13968230900355]]	-1.0	unseen	False	False	1.7496823090035605	2.9805158290546387	1.0	37.0	748971.9368	False		False			
02	ses-028	39	images_fmri/blazer/blazer_01b.jpg	unseen	709	60	1	None	138.0	2100.0	1.0	unseen-between	1	4	172.86	2.98	True	True	172.8616595249623	175.827281631995	[['x', 174.8046404409688]]	-1.0	unseen	False	False	1.944640440968783	2.9656221070326865	1.0	38.0	748976.4181	False		False			
02	ses-028	40	images_fmri/sword/sword_01b.jpg	seen	7417	619	1	None	1603.0	22644.0	1.0	seen-between	2	4	177.32999999999996	2.98	False	True	177.3281853949884	180.31150616996456	[['b', 179.16289120691363]]	2.0	seen	False	True	1.832891206913672	2.983320774976164	1.0	39.0	748980.8847	False		False	7.0	0.0	222.0
02	ses-028	41	images_fmri/croissant/croissant_01b.jpg	unseen	2197	184	1	None	443.0	6406.0	1.0	unseen-between	1	4	181.8	2.98	False	False	181.797717561014	184.7773098599864	[['a', 184.51450135197956]]	1.0	seen	True	False	2.71450135197955	2.9795922989724204	1.0	40.0	748985.3542	False		False			
02	ses-028	42	images_fmri/zebra/zebra_01b.jpg	seen	8617	719	1	None	1852.0	26063.0	1.0	seen-between	2	4	186.27	2.98	True	True	186.26518372795545	189.24455683492124	[['y', 187.57353777694516]]	1.0	seen	False	False	1.3035377769451486	2.979373106965795	1.0	41.0	748989.8217	False		False	7.0	0.0	399.0
02	ses-028	43	images_fmri/pie/pie_01b.jpg	seen	5557	464	1	None	1169.0	16627.0	1.0	seen-between-within	3	4	190.74	2.98	True	True	190.7321940679103	193.71545464696828	[['b', 191.6994257409824]]	2.0	seen	False	True	0.9594257409823967	2.983260579057969	1.0	42.0	748994.2887	False		False	0.0	93.86570000008214	21.0
02	ses-028	44	images_fmri/footbath/footbath_01s.jpg	unseen	3073	257	1	None	632.0	9116.0	1.0	unseen-within	1	4	195.21	2.98	False	True	195.2141072169179	198.177309460938	[['a', 197.07281909300946]]	1.0	seen	True	False	1.862819093009449	2.963202244020067	1.0	43.0	748998.7706	False		False			
02	ses-028	45	images_fmri/binoculars/binoculars_01s.jpg	seen	625	53	1	None	128.0	1959.0	1.0	seen-within	2	4	199.68	2.98	True	False	199.6818468599813	202.66430437692907	[['x', 200.89549005799927]]	2.0	seen	False	True	1.2154900579992614	2.982457516947761	1.0	44.0	749003.2383	False		False	0.0	560.2740999999223	104.0
02	ses-028	46	images_fmri/acorn/acorn_01b.jpg	unseen	1	1	1	None	4.0	43.0	1.0	unseen-within	1	4	204.15	2.98	True	False	204.1492149789119	207.12691936292688	[['b', 206.00549327000044]]	-1.0	unseen	False	False	1.8554932700004367	2.9777043840149418	1.0	45.0	749007.7057	False		False			
02	ses-028	47	images_fmri/punch1/punch1_01s.jpg	seen	6013	502	1	None	1255.0	17874.0	1.0	seen-between	2	4	208.62	2.98	True	False	208.614199492964	211.59314486396036	[['y', 210.5634671289008]]	1.0	seen	False	False	1.9434671289008063	2.978945370996371	1.0	46.0	749012.1707	False		False	7.0	0.0	441.0
02	ses-028	48	images_fmri/roof_rack/roof_rack_01b.jpg	seen	6373	532	1	None	1330.0	18914.0	1.0	seen-within-between	3	4	213.09	2.98	False	False	213.09601961192675	216.06043189798947	[['a', 214.540705665946]]	1.0	seen	False	False	1.4507056659460034	2.964412286062725	1.0	47.0	749016.6525	False		False	7.0	0.0	426.0
02	ses-028	49	images_fmri/drill/drill_01b.jpg	seen	2617	219	1	None	521.0	7559.0	1.0	seen-within-between	3	4	217.56	2.98	True	True	217.56513546500355	220.54666844999883	[['y', 218.766286736005]]	1.0	seen	False	False	1.2062867360049836	2.981532984995283	1.0	48.0	749021.1216	False		False	7.0	0.0	494.0
02	ses-028	50	images_fmri/towel/towel_01b.jpg	seen	7885	658	1	None	1693.0	23882.0	1.0	seen-within	2	4	222.03	2.98	True	True	222.027930716984	225.0104630870046	[['b', 223.04471023590304]]	2.0	seen	False	True	1.0147102359030384	2.9825323700206354	1.0	49.0	749025.5844	False		False	0.0	820.1963000000687	142.0
02	ses-028	51	images_fmri/tongs/tongs_01s.jpg	seen	7801	651	1	None	1675.0	23642.0	1.0	seen-between	2	4	226.5	2.98	False	False	226.4966597289313	229.47614845994397	[['a', 227.8506844729418]]	1.0	seen	False	False	1.3506844729417935	2.97948873101268	1.0	50.0	749030.0531	False		False	7.0	0.0	453.0
02	ses-028	52	images_fmri/rifle/rifle_01s.jpg	seen	6289	525	1	None	1312.0	18672.0	1.0	seen-between-within	3	4	230.97	2.98	True	True	230.96323927200865	233.9469375029439	[['b', 231.894337237929]]	2.0	seen	False	True	0.9243372379289952	2.9836982309352607	1.0	51.0	749034.5197	False		False	0.0	120.67789999989327	27.0
02	ses-028	53	images_fmri/boxing_gloves/boxing_gloves_01b.jpg	seen	913	77	1	None	184.0	2784.0	1.0	seen-within	2	4	235.44	2.98	False	False	235.4453841620125	238.40981452690903	[['x', 236.44647947896738]]	2.0	seen	False	True	1.0064794789673783	2.9644303648965438	1.0	52.0	749039.0019	False		False	0.0	196.69290000002366	44.0
02	ses-028	54	images_fmri/cufflink/cufflink_01b.jpg	seen	2281	191	1	None	459.0	6638.0	1.0	seen-within	2	4	239.91	2.98	False	True	239.9099481429439	242.8938320279121	[['b', 241.16818087396678]]	2.0	seen	False	True	1.2581808739667792	2.983883884968236	1.0	53.0	749043.4664	False		False	0.0	359.124599999981	59.0
02	ses-028	55	images_fmri/iguana/iguana_01b.jpg	seen	3925	328	1	None	826.0	11802.0	1.0	seen-between-within	3	4	244.38	2.98	False	True	244.379751471919	247.3641979619861	[['b', 245.29855633992702]]	2.0	seen	False	True	0.9185563399270222	2.9844464900670573	1.0	54.0	749047.9362	False		False	0.0	160.91260000003967	36.0
02	ses-028	56	images_fmri/airbag/airbag_01b.jpg	seen	13	2	1	None	8.0	98.0	1.0	seen-between-within	3	4	248.85	2.98	True	False	248.84702257497705	251.82611937797628	[['x', 249.84537027892657]]	2.0	seen	False	True	0.995370278926572	2.979096802999265	1.0	55.0	749052.4035	False		False	0.0	757.6153000000631	128.0
02	ses-028	57	images_fmri/bee/bee_01b.jpg	seen	529	45	1	None	112.0	1695.0	1.0	seen-within	2	4	253.32	2.98	False	False	253.3127418119693	256.29720447794534	[['x', 254.2491058279993]]	2.0	seen	False	True	0.929105827999308	2.984462665976025	1.0	56.0	749056.8692	False		False	0.0	537.9231000000145	99.0
02	ses-028	58	images_fmri/hand/hand_01b.jpg	seen	3625	303	1	None	745.0	10669.0	1.0	seen-within-between	3	4	257.79	2.98	True	False	257.7930169169558	260.7587749809027	[['b', 259.3879232709296]]	-1.0	unseen	True	False	1.5979232709295843	2.9657580639468506	1.0	57.0	749061.3495	False		False	7.0	0.0	375.0
02	ses-028	59	images_fmri/egg_roll/egg_roll_01b.jpg	seen	2713	227	1	None	548.0	7950.0	1.0	seen-between	2	4	262.26	2.98	True	False	262.26272513193544	265.2438273689477	[['y', 263.8073883629404]]	1.0	seen	False	False	1.54738836294041	2.9811022370122373	1.0	58.0	749065.8192	False		False	7.0	0.0	567.0
02	ses-028	60	images_fmri/rabbit/rabbit_01b.jpg	seen	6049	505	1	None	1266.0	18037.0	1.0	seen-within	2	4	266.73	2.98	True	True	266.7260121979052	269.7132379009854	[['b', 267.81814932392444]]	2.0	seen	False	True	1.0881493239244264	2.9872257030801848	1.0	59.0	749070.2825	False		False	0.0	263.7239999999292	59.0
