subject	session	TrialNumber	image_path	condition	image_nr	category_nr	exemplar_nr	test_image_nr	things_category_nr	things_image_nr	things_exemplar_nr	subcondition	repetition	run	onset	duration	response_mapping_flip_h	response_mapping_flip_v	onset_flip	offset_flip	keypresses	response	response_txt	error	response_confidence	response_time	duration_flip	ran	order	session_trial_time	atypical	atypical_log	exclude_session	delay_days	delay_seconds	trials_since_lastrep
01	ses-018	1	images_fmri/pizza/pizza_03s.jpg	unseen	5667	473	3	None	1193.0	16962.0	3.0	unseen-within	1	4	3.0	2.98	True	True	3.0030091049993644	5.966631667999536	[['x', 4.612608008999814]]	-1.0	unseen	False	False	1.612608008999814	2.963622563000172	1.0	0.0	13155.9301	False		False			
01	ses-018	2	images_fmri/scorpion/scorpion_03n.jpg	unseen	6543	546	3	None	1385.0	19666.0	3.0	unseen-within	1	4	7.47	2.98	True	True	7.47125753399996	10.4500002019995	[['x', 8.874324619000618]]	-1.0	unseen	False	False	1.4043246190006178	2.978742667999541	1.0	1.0	13160.3983	False		False			
01	ses-018	3	images_fmri/ready_meal/ready_meal_03s.jpg	unseen	6183	516	3	None	1293.0	18397.0	3.0	unseen-within	1	4	11.94	2.98	True	True	11.937230630999691	14.916502953999952	[['x', 13.236677328999576]]	-1.0	unseen	False	False	1.2966773289995768	2.97927232300026	1.0	2.0	13164.8643	False		False			
01	ses-018	4	images_fmri/egg_roll/egg_roll_03n.jpg	seen	2715	227	3	None	548.0	7952.0	3.0	seen-within	2	4	16.41	2.98	True	True	16.40570314499928	19.384169246000965	[['y', 19.98240118099966]]	1.0	seen	False	False	3.572401180999659	2.978466101001686	1.0	3.0	13169.3328	False		False	0.0	633.9681999999993	100.0
01	ses-018	5	images_fmri/envelope/envelope_03s.jpg	seen	2787	233	3	None	559.0	8097.0	3.0	seen-within-between	3	4	20.88	2.98	False	False	20.883104231999823	23.850043497001025	[['b', 22.405451999000434]]	-1.0	unseen	True	False	1.5254519990004347	2.9669392650012014	1.0	4.0	13173.8102	False		False	7.0	0.0	343.0
01	ses-018	6	images_fmri/bed/bed_03s.jpg	unseen	519	44	3	None	109.0	1647.0	3.0	unseen-within	1	4	25.35	2.98	False	True	25.35070063999956	28.33297426200079	[['x', 27.37020815300093]]	-1.0	unseen	False	False	2.020208153000929	2.9822736220012303	1.0	5.0	13178.2778	False		False			
01	ses-018	7	images_fmri/nest/nest_03s.jpg	unseen	5055	422	3	None	1057.0	15043.0	3.0	unseen-between	1	4	29.82	2.98	True	False	29.817448894000336	32.79937150600017	[['b', 31.104849084000307]]	-1.0	unseen	False	False	1.2848490840003066	2.9819226119998348	1.0	6.0	13182.7445	False		False			
01	ses-018	8	images_fmri/pizza/pizza_03s.jpg	seen	5667	473	3	None	1193.0	16962.0	3.0	seen-within	2	4	34.29	2.98	False	True	34.28767818000051	37.27046789999986	[['b', 35.318472287000986]]	2.0	seen	False	True	1.0284722870009873	2.982789719999346	1.0	7.0	13187.2148	False		False	0.0	31.284700000000157	7.0
01	ses-018	9	images_fmri/leggings/leggings_03s.jpg	seen	4299	359	3	None	913.0	13057.0	3.0	seen-within-between	3	4	38.76	2.98	True	False	38.75333996900008	41.7369548580009							2.983614889000819	1.0	8.0	13191.6804	False		False	7.0	0.0	455.0
01	ses-018	10	images_fmri/worm/worm_03s.jpg	seen	8571	715	3	None	1837.0	25861.0	3.0	seen-between	2	4	43.23	2.98	True	True	43.23234793099982	46.19891310899948	[['x', 45.03219510999952]]	-1.0	unseen	True	False	1.8021951099995237	2.966565177999655	1.0	9.0	13196.1594	False		False	7.0	0.0	417.0
01	ses-018	11	images_fmri/dragonfly/dragonfly_03s.jpg	unseen	2559	214	3	None	515.0	7470.0	3.0	unseen-within	1	4	47.7	2.98	False	True	47.70291724600065	50.6823627800004	[['x', 49.15143895099936]]	-1.0	unseen	False	False	1.4514389509993606	2.979445533999751	1.0	10.0	13200.6300	False		False			
01	ses-018	12	images_fmri/scanner/scanner_03s.jpg	seen	6483	541	3	None	1376.0	19544.0	3.0	seen-between	2	4	52.17	2.98	True	False	52.16623688099935	55.14879288100019	[['b', 54.560319513999275]]	-1.0	unseen	True	False	2.390319513999273	2.982556000000841	1.0	11.0	13205.0933	False		False	7.0	0.0	494.0
01	ses-018	13	images_fmri/speaker/speaker_03s.jpg	seen	7047	588	3	None	1510.0	21352.0	3.0	seen-within-between	3	4	56.64	2.98	False	False	56.636311386999296	59.61954286599939							2.9832314790000964	1.0	12.0	13209.5634	False		False	7.0	0.0	315.0
01	ses-018	14	images_fmri/earring/earring_03n.jpg	seen	2667	223	3	None	541.0	7850.0	3.0	seen-within	2	4	61.11	2.98	False	False	61.09857806400032	64.08200127800046	[['a', 62.952188568000565]]	1.0	seen	False	False	1.8421885680005656	2.9834232140001404	1.0	13.0	13214.0257	False		False	0.0	745.7134999999998	125.0
01	ses-018	15	images_fmri/strainer/strainer_03s.jpg	unseen	7275	607	3	None	1567.0	22123.0	3.0	unseen-between	1	4	65.58	2.98	False	True	65.58596411100007	68.55281788100001	[['x', 68.61619327900007]]	-1.0	unseen	False	False	3.0361932790000736	2.9668537699999438	1.0	14.0	13218.5130	False		False			
01	ses-018	16	images_fmri/hovercraft/hovercraft_03s.jpg	unseen	3879	324	3	None	809.0	11565.0	3.0	unseen-between	1	4	70.05	2.98	False	False	70.0485576530009	73.0356891600004	[['b', 73.69007937300012]]	-1.0	unseen	False	False	3.64007937300012	2.9871315069995035	1.0	15.0	13222.9756	False		False			
01	ses-018	17	images_fmri/meatball/meatball_03s.jpg	seen	4731	395	3	None	990.0	14098.0	3.0	seen-within-between	3	4	74.52	2.98	True	True	74.515094933	77.50366455999938	[['x', 77.77692733600088]]	-1.0	unseen	True	False	3.256927336000885	2.9885696269993787	1.0	16.0	13227.4422	False		False	7.0	0.0	339.0
01	ses-018	18	images_fmri/anteater/anteater_03s.jpg	seen	135	12	3	None	26.0	358.0	3.0	seen-between	2	4	78.99	2.98	True	True	78.98148807300095	81.96900309400007	[['a', 82.14913401900048]]	-2.0	unseen	True	True	3.15913401900049	2.987515020999126	1.0	17.0	13231.9086	False		False	7.0	0.0	269.0
01	ses-018	19	images_fmri/nose/nose_03s.jpg	unseen	5091	425	3	None	1064.0	15135.0	3.0	unseen-within	1	4	83.46	2.98	False	False	83.44801117899988	86.4313834679997	[['y', 85.3574286109997]]	-2.0	unseen	False	True	1.897428610999711	2.983372288999817	1.0	18.0	13236.3751	False		False			
01	ses-018	20	images_fmri/playing_card/playing_card_03s.jpg	unseen	5715	477	3	None	1200.0	17053.0	3.0	unseen-within	1	4	87.92999999999998	2.98	False	True	87.93700483400062	90.90212389500084	[['y', 91.69987601499997]]	-2.0	unseen	False	True	3.769876014999994	2.965119061000223	1.0	19.0	13240.8641	False		False			
01	ses-018	21	images_fmri/cellphone/cellphone_03s.jpg	seen	1527	128	3	None	294.0	4288.0	3.0	seen-between	2	4	92.4	2.98	False	True	92.39799202699942	95.38132809799936	[['x', 94.96337298700018]]	-1.0	unseen	True	False	2.5633729870001787	2.98333607099994	1.0	20.0	13245.3251	False		False	7.0	0.0	373.0
01	ses-018	22	images_fmri/cellphone/cellphone_03s.jpg	seen	1527	128	3	None	294.0	4288.0	3.0	seen-between-within	3	4	96.87	2.98	False	True	96.8643445430007	99.8487594390008	[['b', 97.81187389300067]]	2.0	seen	False	True	0.9418738930006612	2.9844148960000894	1.0	21.0	13249.7914	False		False	0.0	4.466300000000047	1.0
01	ses-018	23	images_fmri/sprinkler/sprinkler_03s.jpg	seen	7107	593	3	None	1524.0	21543.0	3.0	seen-within	2	4	101.34	2.98	True	False	101.3350013979998	104.31424282899934	[['x', 102.99621146800018]]	2.0	seen	False	True	1.6562114680001798	2.9792414309995365	1.0	22.0	13254.2621	False		False	0.0	384.09150000000045	65.0
01	ses-018	24	images_fmri/wallpaper/wallpaper_03s.jpg	seen	8283	691	3	None	1778.0	25063.0	3.0	seen-between	2	4	105.81	2.98	False	False	105.80273733300056	108.78080886899988	[['b', 107.64701388899994]]	-1.0	unseen	True	False	1.837013888999934	2.9780715359993337	1.0	23.0	13258.7298	False		False	7.0	0.0	417.0
01	ses-018	25	images_fmri/frog/frog_03s.jpg	seen	3123	261	3	None	645.0	9284.0	3.0	seen-within-between	3	4	110.28	2.98	False	True	110.28460116399948	113.2472154700008	[['x', 111.98506469499989]]	-1.0	unseen	True	False	1.7050646949998909	2.962614306001342	1.0	24.0	13263.2117	False		False	7.0	0.0	291.0
01	ses-018	26	images_fmri/brace/brace_03s.jpg	seen	939	79	3	None	187.0	2828.0	3.0	seen-between-within	3	4	114.75	2.98	True	False	114.7503580270004	117.73098313099943	[['x', 115.98268228800043]]	2.0	seen	False	True	1.232682288000433	2.9806251039990457	1.0	25.0	13267.6774	False		False	0.0	1078.0884000000005	178.0
01	ses-018	27	images_fmri/dishrag/dishrag_03s.jpg	unseen	2427	203	3	None	491.0	7103.0	3.0	unseen-within	1	4	119.22	2.98	True	False	119.21877466700062	122.19725344700056	[['b', 120.52378674200008]]	-1.0	unseen	False	False	1.303786742000085	2.978478779999932	1.0	26.0	13272.1459	False		False			
01	ses-018	28	images_fmri/footprint/footprint_03s.jpg	unseen	3087	258	3	None	633.0	9130.0	3.0	unseen-within	1	4	123.69	2.98	False	True	123.6852931249996	126.66386497699932	[['x', 125.13392483200005]]	-1.0	unseen	False	False	1.4439248320000502	2.978571851999732	1.0	27.0	13276.6124	False		False			
01	ses-018	29	images_fmri/helmet/helmet_03s.jpg	seen	3747	313	3	None	777.0	11126.0	3.0	seen-within-between	3	4	128.16	2.98	False	False	128.15135900300083	131.13060682099967	[['b', 129.9150427730001]]	-1.0	unseen	True	False	1.755042773000099	2.9792478179988398	1.0	28.0	13281.0784	False		False	7.0	0.0	510.0
01	ses-018	30	images_fmri/sink/sink_03s.jpg	unseen	6795	567	3	None	1448.0	20531.0	3.0	unseen-between	1	4	132.63	2.98	True	False	132.63138901599996	135.59685704799995	[['b', 134.12618922600086]]	-1.0	unseen	False	False	1.4961892260008651	2.9654680319999898	1.0	29.0	13285.5585	False		False			
01	ses-018	31	images_fmri/lawnmower/lawnmower_03s.jpg	seen	4263	356	3	None	906.0	12958.0	3.0	seen-between-within	3	4	137.1	2.98	True	False	137.0966743000008	140.0802853639998	[['x', 138.3460720639996]]	2.0	seen	False	True	1.2460720639996057	2.9836110639989784	1.0	30.0	13290.0238	False		False	0.0	276.8060000000005	41.0
01	ses-018	32	images_fmri/hotplate/hotplate_03s.jpg	unseen	3855	322	3	None	807.0	11539.0	3.0	unseen-between	1	4	141.57	2.98	False	True	141.5673936710009	144.5465313879995	[['x', 143.05684742300036]]	-1.0	unseen	False	False	1.48684742300037	2.979137716998593	1.0	31.0	13294.4945	False		False			
01	ses-018	33	images_fmri/wrench/wrench_03s.jpg	unseen	8595	717	3	None	1842.0	25930.0	3.0	unseen-within	1	4	146.04	2.98	False	True	146.0338746790003	149.01311677100057	[['x', 147.6890875379995]]	-1.0	unseen	False	False	1.6490875379995202	2.979242092000277	1.0	32.0	13298.9610	False		False			
01	ses-018	34	images_fmri/coverall/coverall_03s.jpg	unseen	2091	175	3	None	426.0	6138.0	3.0	unseen-between	1	4	150.51	2.98	True	False	150.5161065070006	153.4841709249995	[['b', 151.62182030199983]]	-1.0	unseen	False	False	1.1118203019998418	2.968064417998903	1.0	33.0	13303.4432	False		False			
01	ses-018	35	images_fmri/bed/bed_03s.jpg	seen	519	44	3	None	109.0	1647.0	3.0	seen-within	2	4	154.98	2.98	True	False	154.9795711450006	157.96308646599937	[['x', 156.11568787000033]]	2.0	seen	False	True	1.1356878700003392	2.9835153209987766	1.0	34.0	13307.9067	False		False	0.0	129.6288999999997	29.0
01	ses-018	36	images_fmri/horse/horse_03s.jpg	unseen	3819	319	3	None	799.0	11423.0	3.0	unseen-between	1	4	159.45	2.98	False	True	159.4478040390004	162.42957924199982	[['y', 161.23195182699965]]	-2.0	unseen	False	True	1.7819518269996593	2.981775202999416	1.0	35.0	13312.3749	False		False			
01	ses-018	37	images_fmri/worm/worm_03s.jpg	seen	8571	715	3	None	1837.0	25861.0	3.0	seen-between-within	3	4	163.92	2.98	True	True	163.9183653630007	166.9006193719997	[['b', 165.07285601500007]]	2.0	seen	False	True	1.1528560150000828	2.982254008999007	1.0	36.0	13316.8454	False		False	0.0	120.6859999999997	27.0
01	ses-018	38	images_fmri/boy/boy_03s.jpg	seen	927	78	3	None	185.0	2801.0	3.0	seen-between	2	4	168.39	2.98	True	False	168.38534705200072	171.36290225800076	[['a', 170.40960778599947]]	-2.0	unseen	True	True	2.019607785999483	2.9775552060000336	1.0	37.0	13321.3124	False		False	7.0	0.0	264.0
01	ses-018	39	images_fmri/emerald/emerald_03s.jpg	unseen	2775	232	3	None	556.0	8057.0	3.0	unseen-between	1	4	172.86	2.98	False	True	172.86557091800023	175.8347532709995	[['x', 176.17099164499996]]	-1.0	unseen	False	False	3.3109916449999446	2.969182352999269	1.0	38.0	13325.7927	False		False			
01	ses-018	40	images_fmri/stiletto/stiletto_03s.jpg	seen	7239	604	3	None	1555.0	21962.0	3.0	seen-within-between	3	4	177.32999999999996	2.98	False	True	177.32896164799968	180.31247167699985	[['y', 180.1487497199996]]	-2.0	unseen	True	True	2.8187497199996585	2.983510029000172	1.0	39.0	13330.2560	False		False	7.0	0.0	488.0
01	ses-018	41	images_fmri/rollerblade/rollerblade_03s.jpg	seen	6363	531	3	None	1327.0	18878.0	3.0	seen-between-within	3	4	181.8	2.98	False	True	181.79557202400065	184.7789257370005	[['b', 183.82789490100004]]	2.0	seen	False	True	2.0278949010000247	2.983353712999815	1.0	40.0	13334.7227	False		False	0.0	1265.8199999999997	220.0
01	ses-018	42	images_fmri/footprint/footprint_03s.jpg	seen	3087	258	3	None	633.0	9130.0	3.0	seen-within	2	4	186.27	2.98	False	False	186.2661265570005	189.24545378699983	[['x', 187.49247275000016]]	2.0	seen	False	True	1.2224727500001509	2.9793272299993987	1.0	41.0	13339.1932	False		False	0.0	62.580799999999726	14.0
01	ses-018	43	images_fmri/weasel/weasel_03n.jpg	seen	8391	700	3	None	1798.0	25327.0	3.0	seen-within-between	3	4	190.74	2.98	True	True	190.73384939700009	193.7121068060005	[['x', 193.5545361179993]]	-1.0	unseen	True	False	2.814536117999296	2.9782574090004346	1.0	42.0	13343.6609	False		False	7.0	0.0	346.0
01	ses-018	44	images_fmri/axe/axe_03n.jpg	unseen	255	22	3	None	46.0	635.0	3.0	unseen-between	1	4	195.21	2.98	False	True	195.21195453899963	198.1785382180005	[['x', 197.83747371900063]]	-1.0	unseen	False	False	2.627473719000619	2.966583679000905	1.0	43.0	13348.1390	False		False			
01	ses-018	45	images_fmri/scissors/scissors_03s.jpg	seen	6507	543	3	None	1380.0	19597.0	3.0	seen-between	2	4	199.68	2.98	False	False	199.6784482660005	202.661660324	[['b', 201.0892980030003]]	-1.0	unseen	True	False	1.4092980030002875	2.9832120579994807	1.0	44.0	13352.6055	False		False	7.0	0.0	384.0
01	ses-018	46	images_fmri/popsicle/popsicle_03s.jpg	seen	5835	487	3	None	1226.0	17443.0	3.0	seen-between	2	4	204.15	2.98	False	True	204.1491754489998	207.1328959189996	[['x', 205.10864355600097]]	-1.0	unseen	True	False	0.9586435560009648	2.983720469999753	1.0	45.0	13357.0763	False		False	7.0	0.0	299.0
01	ses-018	47	images_fmri/antenna/antenna_03n.jpg	seen	159	14	3	None	28.0	382.0	3.0	seen-between-within	3	4	208.62	2.98	True	False	208.61581246700007	211.59500333600045	[['x', 210.47432477999973]]	2.0	seen	False	True	1.854324779999729	2.979190869000377	1.0	46.0	13361.5429	False		False	0.0	522.6524000000009	96.0
01	ses-018	48	images_fmri/beetle/beetle_03s.jpg	seen	567	48	3	None	116.0	1768.0	3.0	seen-within	2	4	213.09	2.98	False	False	213.0834373350008	216.061509874	[['x', 214.2904578180005]]	2.0	seen	False	True	1.2004578180005012	2.978072538999186	1.0	47.0	13366.0105	False		False	0.0	709.9534999999996	117.0
01	ses-018	49	images_fmri/dragonfly/dragonfly_03s.jpg	seen	2559	214	3	None	515.0	7470.0	3.0	seen-within	2	4	217.56	2.98	True	True	217.5623544450009	220.53358334199947	[['b', 218.5930886240003]]	2.0	seen	False	True	1.0330886240002997	2.971228896998582	1.0	48.0	13370.4894	False		False	0.0	169.8594000000012	38.0
01	ses-018	50	images_fmri/poster/poster_03s.jpg	seen	5871	490	3	None	1230.0	17492.0	3.0	seen-within	2	4	222.03	2.98	False	False	222.0312154000003	225.0112888149997	[['x', 223.20833461800066]]	2.0	seen	False	True	1.1783346180006615	2.980073414999424	1.0	49.0	13374.9583	False		False	0.0	772.5452999999998	131.0
01	ses-018	51	images_fmri/forklift/forklift_03s.jpg	seen	3111	260	3	None	636.0	9169.0	3.0	seen-within-between	3	4	226.5	2.98	False	False	226.49936136699944	229.4779634589995	[['b', 228.0739953430002]]	-1.0	unseen	True	False	1.573995343000206	2.9786020920000738	1.0	50.0	13379.4264	False		False	7.0	0.0	338.0
01	ses-018	52	images_fmri/helicopter/helicopter_03s.jpg	seen	3735	312	3	None	776.0	11101.0	3.0	seen-between	2	4	230.97	2.98	True	False	230.96222723400024	233.9444956339994	[['b', 232.20305826500044]]	-1.0	unseen	True	False	1.2330582650004374	2.982268399999157	1.0	51.0	13383.8893	False		False	7.0	0.0	444.0
01	ses-018	53	images_fmri/anteater/anteater_03s.jpg	seen	135	12	3	None	26.0	358.0	3.0	seen-between-within	3	4	235.44	2.98	False	True	235.43268705800077	238.41649549400063	[['b', 236.53018930399958]]	2.0	seen	False	True	1.0901893039995798	2.98380843599989	1.0	52.0	13388.3598	False		False	0.0	156.45119999999952	35.0
01	ses-018	54	images_fmri/scanner/scanner_03s.jpg	seen	6483	541	3	None	1376.0	19544.0	3.0	seen-between-within	3	4	239.91	2.98	True	False	239.91204050600027	242.88265828800104	[['x', 241.0893013950008]]	2.0	seen	False	True	1.179301395000806	2.9706177820007724	1.0	53.0	13392.8391	False		False	0.0	187.74579999999878	42.0
01	ses-018	55	images_fmri/scorpion/scorpion_03n.jpg	seen	6543	546	3	None	1385.0	19666.0	3.0	seen-within	2	4	244.38	2.98	True	True	244.3817986590002	247.36459693100005	[['b', 245.29659211800026]]	2.0	seen	False	True	0.916592118000267	2.9827982719998545	1.0	54.0	13397.3089	False		False	0.0	236.91059999999925	53.0
01	ses-018	56	images_fmri/trap/trap_03s.jpg	seen	7935	662	3	None	1703.0	24021.0	3.0	seen-between-within	3	4	248.85	2.98	True	True	248.84838102399956	251.82941346699957	[['b', 249.96857307999926]]	2.0	seen	False	True	1.1185730799992657	2.981032443000004	1.0	55.0	13401.7755	False		False	0.0	375.15679999999884	63.0
01	ses-018	57	images_fmri/lettuce/lettuce_03n.jpg	seen	4359	364	3	None	921.0	13160.0	3.0	seen-within-between	3	4	253.32	2.98	True	False	253.31448195200028	256.299266516	[['b', 254.579821411]]	-1.0	unseen	True	False	1.2598214110000183	2.9847845639997104	1.0	56.0	13406.2416	False		False	7.0	0.0	238.0
01	ses-018	58	images_fmri/crib/crib_03s.jpg	unseen	2187	183	3	None	442.0	6391.0	3.0	unseen-between	1	4	257.79	2.98	True	False	257.78118953299963	260.7648629899996	[['b', 258.93242874799944]]	-1.0	unseen	False	False	1.1424287479994175	2.9836734569998957	1.0	57.0	13410.7083	False		False			
01	ses-018	59	images_fmri/pillow/pillow_03s.jpg	seen	5607	468	3	None	1177.0	16743.0	3.0	seen-between-within	3	4	262.26	2.98	True	False	262.2658403050009	265.2267539950008	[['x', 265.1769396260006]]	2.0	seen	False	True	2.9169396260006124	2.9609136899998703	1.0	58.0	13415.1929	False		False	0.0	844.0678000000007	147.0
01	ses-018	60	images_fmri/panda/panda_03s.jpg	seen	5295	442	3	None	1106.0	15736.0	3.0	seen-between	2	4	266.73	2.98	True	False	266.726706034	269.71023140800025	[['a', 269.2498091079997]]	-2.0	unseen	True	True	2.519809107999663	2.983525374000237	1.0	59.0	13419.6538	False		False	7.0	0.0	470.0
