subject	session	TrialNumber	image_path	condition	image_nr	category_nr	exemplar_nr	test_image_nr	things_category_nr	things_image_nr	things_exemplar_nr	subcondition	repetition	run	onset	duration	response_mapping_flip_h	response_mapping_flip_v	onset_flip	offset_flip	keypresses	response	response_txt	error	response_confidence	response_time	duration_flip	ran	order	session_trial_time	atypical	atypical_log	exclude_session	delay_days	delay_seconds	trials_since_lastrep
01	ses-012	1	images_fmri/mango/mango_04s.jpg	unseen	4600	384	4	None	967.0	13777.0	4.0	unseen-within	1	5	3.0	2.98	False	True	2.985517978668213	5.968881130218506	[['x', 6.553424119949341]]	-1.0	unseen	False	False	3.553424119949341	2.983363151550293	1.0	0.0	1625090944.7759	False		False			
01	ses-012	2	images_fmri/compass/compass_04s.jpg	seen	1948	163	4	None	393.0	5653.0	4.0	seen-between	2	5	7.47	2.98	False	True	7.451147079467773	10.435390949249268							2.984243869781494	1.0	1.0	1625090949.2416	False		False	7.0	0.0	405.0
01	ses-012	3	images_fmri/antenna/antenna_04n.jpg	seen	160	14	4	None	28.0	383.0	4.0	seen-between-within	3	5	11.94	2.98	False	True	11.917478084564207	14.899570941925049	[['b', 13.662878036499023]]	2.0	seen	False	True	1.722878036499024	2.98209285736084	1.0	2.0	1625090953.7079	False		False	0.0	778.1921000480652	93.0
01	ses-012	4	images_fmri/flashbulb/flashbulb_04s.jpg	unseen	2992	250	4	None	611.0	8830.0	4.0	unseen-within	1	5	16.41	2.98	True	True	16.38403296470642	19.36733293533325	[['x', 19.74232506752014]]	-1.0	unseen	False	False	3.332325067520141	2.983299970626831	1.0	3.0	1625090958.1745	False		False			
01	ses-012	5	images_fmri/pan/pan_04s.jpg	seen	5272	440	4	None	1104.0	15708.0	4.0	seen-between-within	3	5	20.88	2.98	False	True	20.86598396301269	23.83317708969116	[['x', 22.965015172958374]]	-1.0	unseen	True	False	2.085015172958375	2.967193126678467	1.0	4.0	1625090962.6564	False		False	0.0	247.97329998016357	36.0
01	ses-012	6	images_fmri/dough/dough_04s.jpg	unseen	2548	213	4	None	514.0	7449.0	4.0	unseen-within	1	5	25.35	2.98	True	True	25.334578037261963	28.316165924072266	[['x', 27.490519046783447]]	-1.0	unseen	False	False	2.140519046783446	2.9815878868103027	1.0	5.0	1625090967.1250	False		False			
01	ses-012	7	images_fmri/camera1/camera1_04s.jpg	seen	1288	108	4	None	248.0	3669.0	4.0	seen-within	2	5	29.82	2.98	False	False	29.801671028137207	32.784096002578735	[['b', 31.01153302192688]]	-1.0	unseen	True	False	1.1915330219268796	2.9824249744415283	1.0	6.0	1625090971.5921	False		False	0.0	1119.8853998184204	148.0
01	ses-012	8	images_fmri/penguin/penguin_04s.jpg	seen	5488	458	4	None	1146.0	16297.0	4.0	seen-within-between	3	5	34.29	2.98	False	True	34.271536111831665	37.25394892692566	[['x', 35.97129702568054]]	-1.0	unseen	True	False	1.6812970256805428	2.982412815093994	1.0	7.0	1625090976.0620	False		False	7.0	0.0	416.0
01	ses-012	9	images_fmri/kale/kale_04s.jpg	unseen	4060	339	4	None	861.0	12309.0	4.0	unseen-between	1	5	38.76	2.98	True	False	38.735296964645386	41.71723294258118	[['b', 40.26621699333191]]	-1.0	unseen	False	False	1.5062169933319112	2.981935977935791	1.0	8.0	1625090980.5257	False		False			
01	ses-012	10	images_fmri/hand/hand_04s.jpg	unseen	3628	303	4	None	745.0	10672.0	4.0	unseen-between	1	5	43.23	2.98	False	True	43.2206289768219	46.18669700622559	[['x', 44.70328712463379]]	-1.0	unseen	False	False	1.4732871246337922	2.9660680294036865	1.0	9.0	1625090985.0111	False		False			
01	ses-012	11	images_fmri/kazoo/kazoo_04s.jpg	seen	4084	341	4	None	865.0	12364.0	4.0	seen-within	2	5	47.7	2.98	False	True	47.686583042144775	50.666720151901245	[['b', 49.11270809173584]]	2.0	seen	False	True	1.412708091735837	2.9801371097564697	1.0	10.0	1625090989.4770	False		False	0.0	306.07599997520447	49.0
01	ses-012	12	images_fmri/lemon/lemon_04s.jpg	seen	4324	361	4	None	915.0	13083.0	4.0	seen-between-within	3	5	52.17	2.98	True	False	52.15527892112732	55.13344097137451	[['y', 54.07514309883118]]	1.0	seen	False	False	1.905143098831175	2.9781620502471924	1.0	11.0	1625090993.9457	False		False	0.0	1647.4162998199463	244.0
01	ses-012	13	images_fmri/pastry/pastry_04s.jpg	seen	5380	449	4	None	1125.0	16020.0	4.0	seen-between	2	5	56.64	2.98	True	False	56.620567083358765	59.59953498840332	[['b', 58.28288912773132]]	-1.0	unseen	True	False	1.642889127731323	2.978967905044556	1.0	12.0	1625090998.4110	False		False	7.0	0.0	406.0
01	ses-012	14	images_fmri/footrest/footrest_04s.jpg	seen	3100	259	4	None	634.0	9146.0	4.0	seen-within-between	3	5	61.11	2.98	True	False	61.087209939956665	64.06964492797852	[['b', 62.42827320098877]]	-1.0	unseen	True	False	1.31827320098877	2.9824349880218506	1.0	13.0	1625091002.8776	False		False	7.0	0.0	311.0
01	ses-012	15	images_fmri/crouton/crouton_04n.jpg	unseen	2212	185	4	None	446.0	6453.0	4.0	unseen-between	1	5	65.58	2.98	True	True	65.57008695602417	68.53536891937256	[['x', 67.02311110496521]]	-1.0	unseen	False	False	1.4431111049652117	2.9652819633483887	1.0	14.0	1625091007.3605	False		False			
01	ses-012	16	images_fmri/envelope/envelope_04s.jpg	seen	2788	233	4	None	559.0	8098.0	4.0	seen-between	2	5	70.05	2.98	True	True	70.03785395622253	73.0159239768982	[['x', 72.79635119438171]]	-1.0	unseen	True	False	2.7463511943817167	2.978070020675659	1.0	15.0	1625091011.8283	False		False	7.0	0.0	320.0
01	ses-012	17	images_fmri/soy_sauce/soy_sauce_04s.jpg	seen	7000	584	4	None	1501.0	21236.0	4.0	seen-between-within	3	5	74.52	2.98	False	False	74.50177311897278	77.48481607437134	[['a', 77.41019606590271]]	1.0	seen	False	False	2.890196065902714	2.98304295539856	1.0	16.0	1625091016.2922	False		False	0.0	359.707200050354	61.0
01	ses-012	18	images_fmri/dough/dough_04s.jpg	seen	2548	213	4	None	514.0	7449.0	4.0	seen-within	2	5	78.99	2.98	False	False	78.96896815299988	81.9494891166687	[['a', 80.39613318443298]]	1.0	seen	False	False	1.4061331844329883	2.9805209636688232	1.0	17.0	1625091020.7594	False		False	0.0	53.63439989089966	12.0
01	ses-012	19	images_fmri/dish/dish_04s.jpg	unseen	2416	202	4	None	490.0	7083.0	4.0	unseen-within	1	5	83.46	2.98	True	False	83.45175004005432	86.41569304466248	[['b', 85.49109220504761]]	-1.0	unseen	False	False	2.0310922050476137	2.9639430046081543	1.0	18.0	1625091025.2422	False		False			
01	ses-012	20	images_fmri/sandpaper/sandpaper_04s.jpg	seen	6436	537	4	None	1357.0	19300.0	4.0	seen-between-within	3	5	87.92999999999998	2.98	False	True	87.91663002967834	90.8990170955658	[['b', 89.11846208572388]]	2.0	seen	False	True	1.1884620857238986	2.982387065887451	1.0	19.0	1625091029.7071	False		False	0.0	364.18849992752075	62.0
01	ses-012	21	images_fmri/mop/mop_04s.jpg	seen	4876	407	4	None	1020.0	14531.0	4.0	seen-between	2	5	92.4	2.98	True	False	92.38720393180849	95.36684012413023	[['b', 93.66233515739441]]	-1.0	unseen	True	False	1.2623351573944035	2.9796361923217773	1.0	20.0	1625091034.1776	False		False	7.0	0.0	315.0
01	ses-012	22	images_fmri/envelope/envelope_04s.jpg	seen	2788	233	4	None	559.0	8098.0	4.0	seen-between-within	3	5	96.87	2.98	False	False	96.85264611244202	99.83309602737428	[['a', 98.39306020736694]]	1.0	seen	False	False	1.5230602073669388	2.980449914932251	1.0	21.0	1625091038.6431	False		False	0.0	26.814800024032593	6.0
01	ses-012	23	images_fmri/pig/pig_04s.jpg	seen	5572	465	4	None	1171.0	16664.0	4.0	seen-within-between	3	5	101.34	2.98	True	True	101.3161211013794	104.30109810829164	[['x', 104.05891919136047]]	-1.0	unseen	True	False	2.7189191913604702	2.9849770069122314	1.0	22.0	1625091043.1065	False		False	7.0	0.0	507.0
01	ses-012	24	images_fmri/chess_piece/chess_piece_04s.jpg	unseen	1636	137	4	None	318.0	4619.0	4.0	unseen-within	1	5	105.81	2.98	True	False	105.7993941307068	108.77024292945862	[['b', 109.0312352180481]]	-1.0	unseen	False	False	3.221235218048093	2.970848798751831	1.0	23.0	1625091047.5898	False		False			
01	ses-012	25	images_fmri/stethoscope/stethoscope_04s.jpg	seen	7228	603	4	None	1551.0	21907.0	4.0	seen-between	2	5	110.28	2.98	True	False	110.26579999923706	113.24842596054076	[['b', 112.0667769908905]]	-1.0	unseen	True	False	1.7867769908905018	2.982625961303711	1.0	24.0	1625091052.0562	False		False	7.0	0.0	346.0
01	ses-012	26	images_fmri/viewfinder/viewfinder_04s.jpg	unseen	8212	685	4	None	1764.0	24863.0	4.0	unseen-between	1	5	114.75	2.98	True	True	114.73661994934082	117.71488308906557	[['x', 116.22662019729614]]	-1.0	unseen	False	False	1.4766201972961426	2.9782631397247314	1.0	25.0	1625091056.5270	False		False			
01	ses-012	27	images_fmri/potato/potato_04s.jpg	seen	5896	492	4	None	1232.0	17521.0	4.0	seen-within-between	3	5	119.22	2.98	False	False	119.20328998565674	122.181401014328	[['b', 120.56016206741333]]	-1.0	unseen	True	False	1.3401620674133312	2.9781110286712646	1.0	26.0	1625091060.9937	False		False	7.0	0.0	360.0
01	ses-012	28	images_fmri/weasel/weasel_04s.jpg	seen	8392	700	4	None	1798.0	25328.0	4.0	seen-between	2	5	123.69	2.98	False	False	123.66934299468994	126.6508719921112	[['b', 125.08608412742615], ['b', 126.0357141494751]]	-1.0	unseen	True	False	1.3960841274261495	2.9815289974212646	1.0	27.0	1625091065.4598	False		False	7.0	0.0	333.0
01	ses-012	29	images_fmri/dragonfly/dragonfly_04s.jpg	unseen	2560	214	4	None	515.0	7471.0	4.0	unseen-between	1	5	128.16	2.98	False	True	128.1508481502533	131.1189980506897							2.9681499004364014	1.0	28.0	1625091069.9413	False		False			
01	ses-012	30	images_fmri/lollipop/lollipop_04s.jpg	seen	4516	377	4	None	946.0	13495.0	4.0	seen-within-between	3	5	132.63	2.98	True	True	132.6183741092682	135.5979721546173	[['x', 134.54965806007385]]	-1.0	unseen	True	False	1.919658060073857	2.979598045349121	1.0	29.0	1625091074.4088	False		False	7.0	0.0	509.0
01	ses-012	31	images_fmri/chalkboard/chalkboard_04s.jpg	unseen	1576	132	4	None	304.0	4427.0	4.0	unseen-within	1	5	137.1	2.98	True	True	137.08447313308716	140.06732606887817	[['x', 140.25974798202515]]	-1.0	unseen	False	False	3.159747982025152	2.982852935791016	1.0	30.0	1625091078.8749	False		False			
01	ses-012	32	images_fmri/walnut/walnut_04n.jpg	seen	8296	692	4	None	1779.0	25080.0	4.0	seen-between-within	3	5	141.57	2.98	False	True	141.54746198654175	144.53416204452515	[['x', 142.88366317749023]]	-1.0	unseen	True	False	1.3136631774902412	2.9867000579833984	1.0	31.0	1625091083.3379	False		False	0.0	315.00499987602234	51.0
01	ses-012	33	images_fmri/stethoscope/stethoscope_04s.jpg	seen	7228	603	4	None	1551.0	21907.0	4.0	seen-between-within	3	5	146.04	2.98	True	True	146.01558995246887	149.0005979537964	[['b', 147.10090017318726]]	2.0	seen	False	True	1.0609001731872638	2.985008001327514	1.0	32.0	1625091087.8060	False		False	0.0	35.749799966812134	8.0
01	ses-012	34	images_fmri/scaffolding/scaffolding_04s.jpg	seen	6460	539	4	None	1371.0	19478.0	4.0	seen-within-between	3	5	150.51	2.98	True	True	150.50300097465515	153.465430021286	[['x', 152.2638020515442]]	-1.0	unseen	True	False	1.7538020515441983	2.96242904663086	1.0	33.0	1625091092.2934	False		False	7.0	0.0	401.0
01	ses-012	35	images_fmri/flag/flag_04s.jpg	unseen	2980	249	4	None	606.0	8756.0	4.0	unseen-between	1	5	154.98	2.98	True	True	154.96478295326233	157.94718503952026	[['x', 157.24348211288452]]	-1.0	unseen	False	False	2.263482112884532	2.9824020862579346	1.0	34.0	1625091096.7552	False		False			
01	ses-012	36	images_fmri/chess_piece/chess_piece_04s.jpg	seen	1636	137	4	None	318.0	4619.0	4.0	seen-within	2	5	159.45	2.98	True	True	159.4313449859619	162.4188630580902	[['b', 160.4099521636963]]	2.0	seen	False	True	0.9599521636963004	2.987518072128296	1.0	35.0	1625091101.2218	False		False	0.0	53.632000207901	12.0
01	ses-012	37	images_fmri/flashbulb/flashbulb_04s.jpg	seen	2992	250	4	None	611.0	8830.0	4.0	seen-within	2	5	163.92	2.98	True	True	163.90216708183289	166.88071608543396	[['x', 167.59127807617188]]	-1.0	unseen	True	False	3.671278076171888	2.978549003601074	1.0	36.0	1625091105.6926	False		False	0.0	147.51810002326965	33.0
01	ses-012	38	images_fmri/t-shirt/t-shirt_04s.jpg	unseen	7456	622	4	None	1607.0	22699.0	4.0	unseen-between	1	5	168.39	2.98	False	False	168.38029408454895	171.34830904006958	[['a', 171.38872814178467], ['x', 172.16499400138855]]	1.0	seen	True	False	2.9987281417846816	2.96801495552063	1.0	37.0	1625091110.1707	False		False			
01	ses-012	39	images_fmri/sundae/sundae_04s.jpg	unseen	7348	613	4	None	1583.0	22351.0	4.0	unseen-between	1	5	172.86	2.98	False	False	172.84753108024597	175.81487894058228							2.967347860336304	1.0	38.0	1625091114.6380	False		False			
01	ses-012	40	images_fmri/mousse/mousse_04s.jpg	seen	4960	414	4	None	1031.0	14700.0	4.0	seen-within	2	5	177.32999999999996	2.98	False	True	177.31725192070007	180.29798293113708	[['x', 179.20040798187256]]	-1.0	unseen	True	False	1.870407981872603	2.980731010437012	1.0	39.0	1625091119.1077	False		False	0.0	502.75999999046326	93.0
01	ses-012	41	images_fmri/chalkboard/chalkboard_04s.jpg	seen	1576	132	4	None	304.0	4427.0	4.0	seen-within	2	5	181.8	2.98	False	False	181.78674793243408	184.7640280723572	[['y', 184.42578315734863]]	-2.0	unseen	True	True	2.625783157348621	2.977280139923096	1.0	40.0	1625091123.5772	False		False	0.0	44.70229983329773	10.0
01	ses-012	42	images_fmri/towel/towel_04s.jpg	unseen	7888	658	4	None	1693.0	23885.0	4.0	unseen-within	1	5	186.27	2.98	True	True	186.25064492225647	189.23004603385925	[['x', 189.10631918907166]]	-1.0	unseen	False	False	2.836319189071645	2.979401111602783	1.0	41.0	1625091128.0411	False		False			
01	ses-012	43	images_fmri/thimble/thimble_04n.jpg	unseen	7672	640	4	None	1650.0	23301.0	4.0	unseen-within	1	5	190.74	2.98	True	False	190.72956609725952	193.70079898834229							2.971232891082764	1.0	42.0	1625091132.5200	False		False			
01	ses-012	44	images_fmri/gondola/gondola_04s.jpg	seen	3328	278	4	None	692.0	9898.0	4.0	seen-between-within	3	5	195.21	2.98	True	False	195.19976115226743	198.1680850982666	[['x', 198.71329617500305]]	2.0	seen	False	True	3.503296175003044	2.968323945999145	1.0	43.0	1625091136.9902	False		False	0.0	1276.3522000312805	183.0
01	ses-012	45	images_fmri/horse/horse_04s.jpg	seen	3820	319	4	None	799.0	11424.0	4.0	seen-within	2	5	199.68	2.98	False	False	199.6626501083374	202.6499700546265	[['x', 200.57784008979797]]	2.0	seen	False	True	0.8978400897979668	2.9873199462890625	1.0	44.0	1625091141.4531	False		False	0.0	507.2167000770569	94.0
01	ses-012	46	images_fmri/peeler/peeler_04s.jpg	unseen	5452	455	4	None	1139.0	16208.0	4.0	unseen-between	1	5	204.15	2.98	True	False	204.1344439983368	207.1135611534119	[['b', 205.43046617507935]]	-1.0	unseen	False	False	1.28046617507934	2.979117155075073	1.0	45.0	1625091145.9249	False		False			
01	ses-012	47	images_fmri/thimble/thimble_04n.jpg	seen	7672	640	4	None	1650.0	23301.0	4.0	seen-within	2	5	208.62	2.98	False	False	208.59880805015564	211.58252692222595	[['b', 209.64732813835144]]	-1.0	unseen	True	False	1.027328138351436	2.9837188720703125	1.0	46.0	1625091150.3892	False		False	0.0	17.869199991226196	4.0
01	ses-012	48	images_fmri/zebra/zebra_04s.jpg	seen	8620	719	4	None	1852.0	26066.0	4.0	seen-within-between	3	5	213.09	2.98	True	False	213.08264708518985	216.04929113388064	[['b', 214.54235410690308]]	-1.0	unseen	True	False	1.4523541069030728	2.966644048690796	1.0	47.0	1625091154.8731	False		False	7.0	0.0	308.0
01	ses-012	49	images_fmri/scorpion/scorpion_04s.jpg	seen	6544	546	4	None	1385.0	19667.0	4.0	seen-within	2	5	217.56	2.98	False	True	217.5492660999298	220.5290539264679	[['y', 219.41305899620056]]	-2.0	unseen	True	True	1.8530589962005592	2.979787826538086	1.0	48.0	1625091159.3397	False		False	0.0	315.02379989624023	51.0
01	ses-012	50	images_fmri/compass/compass_04s.jpg	seen	1948	163	4	None	393.0	5653.0	4.0	seen-between-within	3	5	222.03	2.98	False	False	222.0132210254669	224.99638295173645	[['a', 224.81293106079102]]	1.0	seen	False	False	2.7829310607910145	2.9831619262695312	1.0	49.0	1625091163.8036	False		False	0.0	214.56200003623962	48.0
01	ses-012	51	images_fmri/platypus/platypus_04s.jpg	unseen	5704	476	4	None	1199.0	17041.0	4.0	unseen-between	1	5	226.5	2.98	True	False	226.48171997070312	229.46200704574585	[['b', 227.8575520515442]]	-1.0	unseen	False	False	1.3575520515441897	2.9802870750427246	1.0	50.0	1625091168.2721	False		False			
01	ses-012	52	images_fmri/antelope/antelope_04n.jpg	unseen	148	13	4	None	27.0	371.0	4.0	unseen-between	1	5	230.97	2.98	False	False	230.94736003875727	233.929801940918	[['b', 233.72115302085876]]	-1.0	unseen	False	False	2.751153020858766	2.9824419021606445	1.0	51.0	1625091172.7378	False		False			
01	ses-012	53	images_fmri/hedge/hedge_04s.jpg	seen	3712	310	4	None	774.0	11074.0	4.0	seen-between	2	5	235.44	2.98	False	False	235.42974996566767	238.395133972168	[['b', 237.87722420692444]]	-1.0	unseen	True	False	2.4372242069244408	2.965384006500244	1.0	52.0	1625091177.2202	False		False	7.0	0.0	319.0
01	ses-012	54	images_fmri/artichoke/artichoke_04s.jpg	seen	208	18	4	None	40.0	556.0	4.0	seen-within-between	3	5	239.91	2.98	False	True	239.8950970172882	242.88187408447263	[['x', 243.81983399391174]]	-1.0	unseen	True	False	3.9098339939117466	2.986777067184448	1.0	53.0	1625091181.6855	False		False	7.0	0.0	321.0
01	ses-012	55	images_fmri/trap/trap_04s.jpg	seen	7936	662	4	None	1703.0	24022.0	4.0	seen-between	2	5	244.38	2.98	True	True	244.3625640869141	247.345153093338	[['x', 247.3259379863739]]	-1.0	unseen	True	False	2.945937986373906	2.98258900642395	1.0	54.0	1625091186.1530	False		False	7.0	0.0	425.0
01	ses-012	56	images_fmri/trap/trap_04s.jpg	seen	7936	662	4	None	1703.0	24022.0	4.0	seen-between-within	3	5	248.85	2.98	True	False	248.8289370536804	251.81197810173035	[['x', 250.71297311782837]]	2.0	seen	False	True	1.8629731178283748	2.9830410480499268	1.0	55.0	1625091190.6194	False		False	0.0	4.466399908065796	1.0
01	ses-012	57	images_fmri/mango/mango_04s.jpg	seen	4600	384	4	None	967.0	13777.0	4.0	seen-within	2	5	253.32	2.98	True	False	253.29824900627136	256.2789270877838							2.980678081512451	1.0	56.0	1625091195.0887	False		False	0.0	250.3128001689911	56.0
01	ses-012	58	images_fmri/mop/mop_04s.jpg	seen	4876	407	4	None	1020.0	14531.0	4.0	seen-between-within	3	5	257.79	2.98	False	True	257.78345108032227	260.7479181289673	[['b', 259.22979521751404]]	2.0	seen	False	True	1.4397952175140176	2.9644670486450195	1.0	57.0	1625091199.5739	False		False	0.0	165.39630007743835	37.0
01	ses-012	59	images_fmri/snowboard/snowboard_04s.jpg	seen	6916	577	4	None	1482.0	20993.0	4.0	seen-within	2	5	262.26	2.98	False	True	262.2473530769348	265.2279269695282	[['x', 264.640016078949]]	-1.0	unseen	True	False	2.380016078948984	2.980573892593384	1.0	58.0	1625091204.0378	False		False	0.0	1370.2184000015259	204.0
01	ses-012	60	images_fmri/celery/celery_04s.jpg	unseen	1516	127	4	None	292.0	4263.0	4.0	unseen-between	1	5	266.73	2.98	False	False	266.7110710144043	269.6942870616913	[['b', 268.22975611686707]]	-1.0	unseen	False	False	1.4997561168670472	2.9832160472869877	1.0	59.0	1625091208.5015	False		False			
