subject	session	TrialNumber	image_path	condition	image_nr	category_nr	exemplar_nr	test_image_nr	things_category_nr	things_image_nr	things_exemplar_nr	subcondition	repetition	run	onset	duration	response_mapping_flip_h	response_mapping_flip_v	onset_flip	offset_flip	keypresses	response	response_txt	error	response_confidence	response_time	duration_flip	ran	order	session_trial_time	atypical	atypical_log	exclude_session	delay_days	delay_seconds	trials_since_lastrep
02	ses-023	1	images_fmri/grenade/grenade_06s.jpg	unseen	3462	289	6	None	714.0	10243.0	6.0	unseen-between	1	5	3.0	2.98	True	False	3.002836290979758	5.967289394990075	[['y', 5.108842254965566]]	1.0	seen	True	False	2.108842254965566	2.964453104010317	1.0	0.0	436777.5883	False		False			
02	ses-023	2	images_fmri/bib/bib_06s.jpg	seen	606	51	6	None	123.0	1876.0	6.0	seen-between-within	3	5	7.47	2.98	True	False	7.468084565014578	10.45565296697896	[['x', 8.470991596987005]]	2.0	seen	False	True	1.0009915969870056	2.9875684019643813	1.0	1.0	436782.0536	False		False	0.0	127.86429999995744	8.0
02	ses-023	3	images_fmri/cardigan/cardigan_06s.jpg	seen	1422	119	6	None	274.0	4023.0	6.0	seen-between-within	3	5	11.94	2.98	True	True	11.93771550996462	14.921966600988526	[['b', 12.927096938015893]]	2.0	seen	False	True	0.9870969380158936	2.984251091023907	1.0	2.0	436786.5232	False		False	0.0	619.0678000000189	97.0
02	ses-023	4	images_fmri/camel/camel_06s.jpg	seen	1278	107	6	None	246.0	3644.0	6.0	seen-within-between	3	5	16.41	2.98	False	False	16.40495469101006	19.384934002999216	[['a', 17.769150456006173]]	1.0	seen	False	False	1.359150456006173	2.9799793119891547	1.0	3.0	436790.9904	False		False	7.0	0.0	512.0
02	ses-023	5	images_fmri/television/television_06s.jpg	seen	7614	635	6	None	1642.0	23181.0	6.0	seen-between	2	5	20.88	2.98	True	False	20.88721033697948	23.850809989962727	[['y', 22.921817643975373]]	1.0	seen	False	False	2.0418176439753744	2.963599652983248	1.0	4.0	436795.4727	False		False	7.0	0.0	403.0
02	ses-023	6	images_fmri/footbath/footbath_06s.jpg	seen	3078	257	6	None	632.0	9121.0	6.0	seen-between	2	5	25.35	2.98	True	False	25.353313731960952	28.334428689966444	[['y', 27.391879061993677]]	1.0	seen	False	False	2.041879061993676	2.981114958005492	1.0	5.0	436799.9388	False		False	7.0	0.0	283.0
02	ses-023	7	images_fmri/sushi/sushi_06s.jpg	unseen	7386	616	6	None	1589.0	22441.0	6.0	unseen-between	1	5	29.82	2.98	True	True	29.819859134964645	32.800500067009125	[['a', 31.354634588991757]]	-2.0	unseen	False	True	1.5346345889917572	2.98064093204448	1.0	6.0	436804.4053	False		False			
02	ses-023	8	images_fmri/moose/moose_06s.jpg	seen	4866	406	6	None	1019.0	14521.0	6.0	seen-within-between	3	5	34.29	2.98	True	False	34.28768873901572	37.26720877998741	[['a', 35.89150556299137]]	-2.0	unseen	True	True	1.6015055629913704	2.9795200409716927	1.0	7.0	436808.8732	False		False	7.0	0.0	273.0
02	ses-023	9	images_fmri/saltshaker/saltshaker_06s.jpg	unseen	6426	536	6	None	1351.0	19210.0	6.0	unseen-between	1	5	38.76	2.98	False	False	38.754061673011165	41.73227938497439	[['b', 40.78090526396409]]	-1.0	unseen	False	False	2.0209052639640888	2.978217711963225	1.0	8.0	436813.3395	False		False			
02	ses-023	10	images_fmri/crate/crate_06s.jpg	seen	2142	179	6	None	434.0	6271.0	6.0	seen-within-between	3	5	43.23	2.98	True	False	43.237126367981546	46.20312764000846	[['x', 44.2988085320103]]	2.0	seen	False	True	1.0688085320103011	2.966001272026915	1.0	9.0	436817.8226	False		False	7.0	0.0	581.0
02	ses-023	11	images_fmri/sundial/sundial_06s.jpg	unseen	7362	614	6	None	1584.0	22366.0	6.0	unseen-within	1	5	47.7	2.98	False	False	47.702529625967145	50.68318704899866	[['a', 49.29561821796233]]	1.0	seen	True	False	1.5956182179623255	2.9806574230315164	1.0	10.0	436822.2880	False		False			
02	ses-023	12	images_fmri/marshmallow/marshmallow_06s.jpg	seen	4650	388	6	None	978.0	13939.0	6.0	seen-between	2	5	52.17	2.98	False	False	52.17060210596537	55.15042251197156	[['a', 53.430574568978045]]	1.0	seen	False	False	1.2605745689780434	2.9798204060061835	1.0	11.0	436826.7561	False		False	7.0	0.0	490.0
02	ses-023	13	images_fmri/popsicle/popsicle_06s.jpg	unseen	5838	487	6	None	1226.0	17446.0	6.0	unseen-within	1	5	56.64	2.98	False	True	56.63735529698897	59.617557452991605	[['x', 58.044753221969586]]	-1.0	unseen	False	False	1.4047532219695853	2.9802021560026333	1.0	12.0	436831.2228	False		False			
02	ses-023	14	images_fmri/phone/phone_06s.jpg	seen	5526	461	6	None	1162.0	16537.0	6.0	seen-between	2	5	61.11	2.98	False	False	61.10391146497568	64.08186092600226	[['b', 63.38442536897492]]	-1.0	unseen	True	False	2.274425368974917	2.977949461026583	1.0	13.0	436835.6894	False		False	7.0	0.0	498.0
02	ses-023	15	images_fmri/nacho/nacho_06n.jpg	seen	4998	417	6	None	1046.0	14897.0	6.0	seen-within-between	3	5	65.58	2.98	True	True	65.58178121497622	68.54908327199519	[['y', 68.18650134897325]]	1.0	seen	False	False	2.6065013489732536	2.967302057018969	1.0	14.0	436840.1673	False		False	7.0	0.0	473.0
02	ses-023	16	images_fmri/seesaw/seesaw_06s.jpg	unseen	6594	550	6	None	1403.0	19922.0	6.0	unseen-within	1	5	70.05	2.98	True	True	70.05202120199101	73.03569913998945	[['y', 71.25176599400584]]	1.0	seen	True	False	1.2017659940058394	2.9836779379984364	1.0	15.0	436844.6375	False		False			
02	ses-023	17	images_fmri/seagull/seagull_06s.jpg	unseen	6582	549	6	None	1396.0	19828.0	6.0	unseen-between	1	5	74.52	2.98	True	True	74.52098715497414	77.49843978200806	[['y', 76.34076788200764]]	1.0	seen	True	False	1.820767882007644	2.9774526270339265	1.0	16.0	436849.1065	False		False			
02	ses-023	18	images_fmri/lettuce/lettuce_06n.jpg	unseen	4362	364	6	None	921.0	13163.0	6.0	unseen-within	1	5	78.99	2.98	False	True	78.98571346799145	81.96895146497991	[['x', 81.99967564397957]]	-1.0	unseen	False	False	3.009675643979577	2.983237996988464	1.0	17.0	436853.5712	False		False			
02	ses-023	19	images_fmri/popsicle/popsicle_06s.jpg	seen	5838	487	6	None	1226.0	17446.0	6.0	seen-within	2	5	83.46	2.98	False	True	83.44949060201179	86.43547848501476	[['b', 84.23090606299229]]	2.0	seen	False	True	0.7709060629922959	2.985987883002963	1.0	18.0	436858.0350	False		False	0.0	26.81219999998575	6.0
02	ses-023	20	images_fmri/carousel/carousel_06s.jpg	unseen	1434	120	6	None	276.0	4052.0	6.0	unseen-between	1	5	87.92999999999998	2.98	True	True	87.93290193896974	90.89939228096046	[['x', 89.6045423289761], ['b', 90.67238154599909]]	-1.0	unseen	False	False	1.6745423289761163	2.9664903419907205	1.0	19.0	436862.5184	False		False			
02	ses-023	21	images_fmri/nest/nest_06s.jpg	unseen	5058	422	6	None	1057.0	15046.0	6.0	unseen-within	1	5	92.4	2.98	True	False	92.40313846396748	95.38213828101289	[['y', 94.17946922400733]]	1.0	seen	True	False	1.7794692240073289	2.978999817045405	1.0	20.0	436866.9886	False		False			
02	ses-023	22	images_fmri/hay/hay_06s.jpg	seen	3678	307	6	None	762.0	10914.0	6.0	seen-between	2	5	96.87	2.98	False	False	96.86966060497798	99.84855454601347	[['b', 98.34038949897513]]	-1.0	unseen	True	False	1.4703894989751234	2.978893941035494	1.0	21.0	436871.4551	False		False	7.0	0.0	294.0
02	ses-023	23	images_fmri/television/television_06s.jpg	seen	7614	635	6	None	1642.0	23181.0	6.0	seen-between-within	3	5	101.34	2.98	True	False	101.33680140395882	104.31947477196807	[['x', 102.33349617896602]]	2.0	seen	False	True	0.9934961789660122	2.982673368009273	1.0	22.0	436875.9223	False		False	0.0	80.44959999999264	18.0
02	ses-023	24	images_fmri/earring/earring_06n.jpg	seen	2670	223	6	None	541.0	7853.0	6.0	seen-between-within	3	5	105.81	2.98	False	True	105.80411199998343	108.78638184099692	[['b', 106.72026743099559]]	2.0	seen	False	True	0.9102674309955888	2.9822698410134763	1.0	23.0	436880.3896	False		False	0.0	199.38160000002244	24.0
02	ses-023	25	images_fmri/towel/towel_06s.jpg	seen	7890	658	6	None	1693.0	23887.0	6.0	seen-within-between	3	5	110.28	2.98	True	True	110.28106443298748	113.25295851600822	[['y', 111.4661840859917]]	1.0	seen	False	False	1.186184085991698	2.971894083020743	1.0	24.0	436884.8665	False		False	7.0	0.0	298.0
02	ses-023	26	images_fmri/nest/nest_06s.jpg	seen	5058	422	6	None	1057.0	15046.0	6.0	seen-within	2	5	114.75	2.98	False	True	114.75275390496245	117.73463633999928	[['b', 115.79251608799677]]	2.0	seen	False	True	1.0425160879967734	2.981882435036823	1.0	25.0	436889.3382	False		False	0.0	22.349600000015926	5.0
02	ses-023	27	images_fmri/buggy/buggy_06s.jpg	seen	1086	91	6	None	214.0	3215.0	6.0	seen-within	2	5	119.22	2.98	False	False	119.2149530139868	122.20154177001676	[['x', 120.18340147001436]]	2.0	seen	False	True	0.9634014700143608	2.98658875602996	1.0	26.0	436893.8004	False		False	0.0	315.6059000000241	50.0
02	ses-023	28	images_fmri/syringe/syringe_06s.jpg	seen	7434	620	6	None	1605.0	22675.0	6.0	seen-within	2	5	123.69	2.98	False	True	123.685020703997	126.66687740798808	[['b', 124.61113962100353]]	2.0	seen	False	True	0.9211396210035332	2.9818567039910704	1.0	27.0	436898.2705	False		False	0.0	824.695299999963	143.0
02	ses-023	29	images_fmri/crutch/crutch_06s.jpg	unseen	2250	188	6	None	453.0	6548.0	6.0	unseen-between	1	5	128.16	2.98	False	False	128.15150285197888	131.1301255809958	[['y', 129.71749562298646]]	-2.0	unseen	False	True	1.5574956229864654	2.9786227290169336	1.0	28.0	436902.7370	False		False			
02	ses-023	30	images_fmri/gravestone/gravestone_06s.jpg	unseen	3450	288	6	None	711.0	10200.0	6.0	unseen-within	1	5	132.63	2.98	False	False	132.6359400919755	135.60218237095978	[['a', 135.63696241396246]]	1.0	seen	True	False	3.0069624139624693	2.966242278984282	1.0	29.0	436907.2214	False		False			
02	ses-023	31	images_fmri/coin/coin_06s.jpg	unseen	1914	160	6	None	386.0	5556.0	6.0	unseen-between	1	5	137.1	2.98	False	True	137.09863685496384	140.0815846020123	[['x', 139.05505273595918]]	-1.0	unseen	False	False	1.9550527359591852	2.982947747048456	1.0	30.0	436911.6841	False		False			
02	ses-023	32	images_fmri/whip/whip_06s.jpg	unseen	8454	705	6	None	1810.0	25493.0	6.0	unseen-between	1	5	141.57	2.98	False	False	141.56742991000647	144.547638205986	[['a', 142.9172875849763]]	1.0	seen	True	False	1.3472875849763	2.980208295979537	1.0	31.0	436916.1529	False		False			
02	ses-023	33	images_fmri/face_mask/face_mask_06s.jpg	unseen	2850	238	6	None	571.0	8261.0	6.0	unseen-between	1	5	146.04	2.98	True	True	146.0363372300053	149.0138555119629	[['y', 147.9980854759924]]	1.0	seen	True	False	1.9580854759924196	2.9775182819576003	1.0	32.0	436920.6218	False		False			
02	ses-023	34	images_fmri/wheat/wheat_06s.jpg	unseen	8418	702	6	None	1806.0	25445.0	6.0	unseen-between	1	5	150.51	2.98	True	True	150.51602466095937	153.4802557369694	[['x', 152.29608755500522]]	-1.0	unseen	False	False	1.7860875550052242	2.964231076010037	1.0	33.0	436925.1015	False		False			
02	ses-023	35	images_fmri/footbath/footbath_06s.jpg	seen	3078	257	6	None	632.0	9121.0	6.0	seen-between-within	3	5	154.98	2.98	True	True	154.98260170297	157.966718184005	[['b', 155.91090701299254]]	2.0	seen	False	True	0.9309070129925489	2.9841164810350165	1.0	34.0	436929.5681	False		False	0.0	129.6292999999714	29.0
02	ses-023	36	images_fmri/screwdriver/screwdriver_06s.jpg	seen	6558	547	6	None	1392.0	19760.0	6.0	seen-between-within	3	5	159.45	2.98	False	False	159.4509232249693	162.43484177195933	[['x', 160.37710844096728]]	2.0	seen	False	True	0.927108440967288	2.983918546990026	1.0	35.0	436934.0364	False		False	0.0	275.37859999999637	41.0
02	ses-023	37	images_fmri/stethoscope/stethoscope_06n.jpg	unseen	7230	603	6	None	1551.0	21909.0	6.0	unseen-between	1	5	163.92	2.98	True	True	163.91350938600954	166.89691991597647	[['y', 166.22837312100455]]	1.0	seen	True	False	2.308373121004564	2.983410529966932	1.0	36.0	436938.4990	False		False			
02	ses-023	38	images_fmri/blowtorch/blowtorch_06s.jpg	unseen	762	64	6	None	149.0	2279.0	6.0	unseen-within	1	5	168.39	2.98	True	True	168.3847279289621	171.36489749600878	[['x', 169.8991109500057]]	-1.0	unseen	False	False	1.50911095000572	2.980169567046687	1.0	37.0	436942.9702	False		False			
02	ses-023	39	images_fmri/corn/corn_06s.jpg	seen	2058	172	6	None	413.0	5932.0	6.0	seen-within	2	5	172.86	2.98	False	True	172.86839728598716	175.83449693099828	[['b', 173.82229227700736]]	2.0	seen	False	True	0.96229227700735	2.966099645011127	1.0	38.0	436947.4539	False		False	0.0	396.0761000000057	68.0
02	ses-023	40	images_fmri/jar/jar_06s.jpg	unseen	3990	333	6	None	841.0	12025.0	6.0	unseen-within	1	5	177.32999999999996	2.98	True	False	177.33470233198022	180.3135967149865	[['b', 178.96400290797465]]	-1.0	unseen	False	False	1.6340029079746898	2.9788943830062635	1.0	39.0	436951.9202	False		False			
02	ses-023	41	images_fmri/binoculars/binoculars_06s.jpg	seen	630	53	6	None	128.0	1964.0	6.0	seen-between	2	5	181.8	2.98	True	False	181.7992260439787	184.7799985340098	[['y', 183.1052266290062]]	1.0	seen	False	False	1.3052266290061991	2.980772490031086	1.0	40.0	436956.3847	False		False	7.0	0.0	365.0
02	ses-023	42	images_fmri/gravestone/gravestone_06s.jpg	seen	3450	288	6	None	711.0	10200.0	6.0	seen-within	2	5	186.27	2.98	True	False	186.26627038500737	189.24968324101064	[['x', 187.20602870400762]]	2.0	seen	False	True	0.9360287040076116	2.9834128560032696	1.0	41.0	436960.8518	False		False	0.0	53.630400000023656	12.0
02	ses-023	43	images_fmri/acorn/acorn_06s.jpg	seen	6	1	6	None	4.0	48.0	6.0	seen-within-between	3	5	190.74	2.98	True	False	190.73282868496608	193.7129991870024	[['x', 193.00624175998382]]	2.0	seen	False	True	2.2662417599838136	2.9801705020363443	1.0	42.0	436965.3183	False		False	7.0	0.0	607.0
02	ses-023	44	images_fmri/hay/hay_06s.jpg	seen	3678	307	6	None	762.0	10914.0	6.0	seen-between-within	3	5	195.21	2.98	False	True	195.2155141409603	198.17944713198813	[['b', 196.1670889449888]]	2.0	seen	False	True	0.9570889449887828	2.963932991027832	1.0	43.0	436969.8010	False		False	0.0	98.3458999999566	22.0
02	ses-023	45	images_fmri/blazer/blazer_06s.jpg	seen	714	60	6	None	138.0	2105.0	6.0	seen-within-between	3	5	199.68	2.98	True	True	199.68264751596143	202.6652865759679	[['b', 200.87669862696202]]	2.0	seen	False	True	1.196698626962018	2.982639060006477	1.0	44.0	436974.2681	False		False	7.0	0.0	378.0
02	ses-023	46	images_fmri/spinach/spinach_06s.jpg	seen	7074	590	6	None	1516.0	21437.0	6.0	seen-within	2	5	204.15	2.98	False	True	204.15096173097845	207.1322793319705	[['b', 205.38124016398797]]	2.0	seen	False	True	1.2312401639879624	2.9813176009920426	1.0	45.0	436978.7364	False		False	0.0	1164.1584000000148	197.0
02	ses-023	47	images_fmri/binoculars/binoculars_06s.jpg	seen	630	53	6	None	128.0	1964.0	6.0	seen-between-within	3	5	208.62	2.98	False	False	208.61564495699716	211.6014959239983	[['x', 209.677811816975]]	2.0	seen	False	True	1.057811816975004	2.98585096700117	1.0	46.0	436983.2011	False		False	0.0	26.816400000010617	6.0
02	ses-023	48	images_fmri/water_fountain/water_fountain_06s.jpg	seen	8382	699	6	None	1791.0	25239.0	6.0	seen-within	2	5	213.09	2.98	True	False	213.082832960994	216.06212522595888	[['x', 214.1569639479858]]	2.0	seen	False	True	1.0669639479857835	2.979292264964897	1.0	47.0	436987.6683	False		False	0.0	378.1734000000288	64.0
02	ses-023	49	images_fmri/aircraft_carrier/aircraft_carrier_06s.jpg	seen	30	3	6	None	10.0	132.0	6.0	seen-within	2	5	217.56	2.98	False	False	217.56559183297213	220.534658923978	[['x', 218.46280683000805]]	2.0	seen	False	True	0.9028068300080464	2.9690670910058543	1.0	48.0	436992.1511	False		False	0.0	445.24009999999544	79.0
02	ses-023	50	images_fmri/compass/compass_06n.jpg	seen	1950	163	6	None	393.0	5655.0	6.0	seen-within-between	3	5	222.03	2.98	True	False	222.0318258699845	225.013567276008	[['y', 223.49686565698357]]	1.0	seen	False	False	1.466865656983572	2.9817414060235023	1.0	49.0	436996.6173	False		False	7.0	0.0	552.0
02	ses-023	51	images_fmri/earwig/earwig_06n.jpg	unseen	2682	224	6	None	542.0	7869.0	6.0	unseen-between	1	5	226.5	2.98	True	True	226.49675444397144	229.47903448401485	[['a', 228.324854114966]]	-2.0	unseen	False	True	1.8248541149660011	2.982280040043406	1.0	50.0	437001.0822	False		False			
02	ses-023	52	images_fmri/tumbleweed/tumbleweed_06s.jpg	seen	8046	671	6	None	1728.0	24358.0	6.0	seen-between	2	5	230.97	2.98	False	True	230.9671765599633	233.9463969169883	[['x', 232.24078318598913]]	-1.0	unseen	True	False	1.2707831859891314	2.979220357025042	1.0	51.0	437005.5527	False		False	7.0	0.0	484.0
02	ses-023	53	images_fmri/locker/locker_06s.jpg	seen	4506	376	6	None	942.0	13447.0	6.0	seen-between-within	3	5	235.44	2.98	False	False	235.43167169799565	238.415177176008	[['x', 236.2889564220095]]	2.0	seen	False	True	0.8489564220095076	2.9835054780123755	1.0	52.0	437010.0172	False		False	0.0	333.4743000000017	54.0
02	ses-023	54	images_fmri/lemonade/lemonade_06s.jpg	seen	4338	362	6	None	916.0	13097.0	6.0	seen-between-within	3	5	239.91	2.98	False	True	239.9118944769725	242.88271834200717	[['b', 240.85973025497515]]	2.0	seen	False	True	0.949730254975151	2.970823865034617	1.0	53.0	437014.4974	False		False	0.0	1190.9857000000193	203.0
02	ses-023	55	images_fmri/mandolin/mandolin_06s.jpg	seen	4590	383	6	None	966.0	13767.0	6.0	seen-within	2	5	244.38	2.98	False	True	244.3814210749697	247.36459105298852	[['b', 245.43138888396788]]	2.0	seen	False	True	1.0513888839678884	2.98316997801885	1.0	54.0	437018.9669	False		False	0.0	739.7640000000247	124.0
02	ses-023	56	images_fmri/emerald/emerald_06s.jpg	seen	2778	232	6	None	556.0	8060.0	6.0	seen-within	2	5	248.85	2.98	True	True	248.84985670400783	251.82822382601444	[['b', 249.8906277010101]]	2.0	seen	False	True	1.040627701010095	2.9783671220066026	1.0	55.0	437023.4353	False		False	0.0	521.2256000000052	96.0
02	ses-023	57	images_fmri/sundial/sundial_06s.jpg	seen	7362	614	6	None	1584.0	22366.0	6.0	seen-within	2	5	253.32	2.98	False	True	253.3157358759781	256.2991061399807	[['b', 254.12985663401196]]	2.0	seen	False	True	0.8098566340119646	2.983370264002588	1.0	56.0	437027.9012	False		False	0.0	205.6132000000216	46.0
02	ses-023	58	images_fmri/skunk/skunk_06s.jpg	seen	6822	569	6	None	1460.0	20699.0	6.0	seen-between-within	3	5	257.79	2.98	True	False	257.78037171799224	260.76589466800215	[['x', 258.68751528998837]]	2.0	seen	False	True	0.8975152899883483	2.9855229500099085	1.0	57.0	437032.3659	False		False	0.0	1284.8366999999853	224.0
02	ses-023	59	images_fmri/christmas_tree/christmas_tree_06s.jpg	seen	1758	147	6	None	342.0	4938.0	6.0	seen-between	2	5	262.26	2.98	False	True	262.263228848984	265.2267633120064	[['x', 264.710419067007]]	-1.0	unseen	True	False	2.450419067007033	2.96353446302237	1.0	58.0	437036.8487	False		False	7.0	0.0	371.0
02	ses-023	60	images_fmri/tumbleweed/tumbleweed_06s.jpg	seen	8046	671	6	None	1728.0	24358.0	6.0	seen-between-within	3	5	266.73	2.98	False	False	266.73244803596754	269.71114985999884	[['x', 267.69442732201423]]	2.0	seen	False	True	0.9644273220142168	2.978701824031305	1.0	59.0	437041.3179	False		False	0.0	35.76520000002347	8.0
