subject	session	TrialNumber	image_path	condition	image_nr	category_nr	exemplar_nr	test_image_nr	things_category_nr	things_image_nr	things_exemplar_nr	subcondition	repetition	run	onset	duration	response_mapping_flip_h	response_mapping_flip_v	onset_flip	offset_flip	keypresses	response	response_txt	error	response_confidence	response_time	duration_flip	ran	order	session_trial_time	atypical	atypical_log	exclude_session	delay_days	delay_seconds	trials_since_lastrep
06	ses-015	1	images_fmri/truck/truck_04n.jpg	seen	8020	669	4	None	1721.0	24263.0	4.0	seen-between	2	6	3.0	2.98	True	False	3.0020079612731934	5.966088056564331	[['x', 5.22517204284668]]	2.0	seen	False	True	2.22517204284668	2.9640800952911377	1.0	0.0	1628106892.3781	False		False	14.0	0.0	623.0
06	ses-015	2	images_fmri/camera1/camera1_04s.jpg	seen	1288	108	4	None	248.0	3669.0	4.0	seen-between	2	6	7.47	2.98	False	True	7.4671630859375	10.449550151824951	[['a', 9.74443006515503]]	1.0	seen	False	False	2.274430065155029	2.982387065887451	1.0	1.0	1628106896.8433	False		False	14.0	0.0	429.0
06	ses-015	3	images_fmri/cheetah/cheetah_04s.jpg	seen	1612	135	4	None	316.0	4594.0	4.0	seen-within	2	6	11.94	2.98	False	True	11.937824964523315	14.917200088500977	[['b', 13.414332151412964]]	2.0	seen	False	True	1.4743321514129644	2.979375123977661	1.0	2.0	1628106901.3139	False		False	0.0	1452.7834000587463	218.0
06	ses-015	4	images_fmri/pudding/pudding_04s.jpg	unseen	5992	500	4	None	1247.0	17731.0	4.0	unseen-within	1	6	16.41	2.98	False	True	16.403346061706543	19.38463807106018	[['y', 19.350016117095947], ['y', 19.360802173614502]]	-2.0	unseen	False	True	2.940016117095947	2.9812920093536377	1.0	3.0	1628106905.7794	False		False			
06	ses-015	5	images_fmri/fondue/fondue_04n.jpg	seen	3052	255	4	None	627.0	9048.0	4.0	seen-between-within	3	6	20.88	2.98	True	True	20.884605169296265	23.849642992019653	[['b', 22.95062017440796]]	2.0	seen	False	True	2.07062017440796	2.9650378227233887	1.0	4.0	1628106910.2607	False		False	0.0	705.7792000770569	98.0
06	ses-015	6	images_fmri/pacifier/pacifier_04s.jpg	seen	5224	436	4	None	1094.0	15576.0	4.0	seen-within-between	3	6	25.35	2.98	False	False	25.35511016845703	28.33391499519348	[['x', 26.667320013046265]]	2.0	seen	False	True	1.3173200130462632	2.97880482673645	1.0	5.0	1628106914.7312	False		False	14.0	0.0	559.0
06	ses-015	7	images_fmri/rabbit/rabbit_04n.jpg	seen	6052	505	4	None	1266.0	18040.0	4.0	seen-between-within	3	6	29.82	2.98	False	False	29.817435026168823	32.79917001724243	[['x', 30.817108154296875]]	2.0	seen	False	True	0.9971081542968748	2.9817349910736084	1.0	6.0	1628106919.1935	False		False	0.0	268.17750000953674	23.0
06	ses-015	8	images_fmri/squirrel/squirrel_04s.jpg	unseen	7132	595	4	None	1530.0	21622.0	4.0	unseen-between	1	6	34.29	2.98	True	False	34.28376603126526	37.27114009857178	[['x', 35.182799100875854]]	2.0	seen	True	True	0.8927991008758553	2.9873740673065186	1.0	7.0	1628106923.6599	False		False			
06	ses-015	9	images_fmri/kale/kale_04s.jpg	unseen	4060	339	4	None	861.0	12309.0	4.0	unseen-between	1	6	38.76	2.98	False	False	38.75034213066101	41.73262810707092	[['y', 40.71187496185303]]	-2.0	unseen	False	True	1.9518749618530291	2.982285976409912	1.0	8.0	1628106928.1264	False		False			
06	ses-015	10	images_fmri/stapler/stapler_04s.jpg	seen	7180	599	4	None	1540.0	21757.0	4.0	seen-within	2	6	43.23	2.98	True	True	43.23486518859863	46.19898319244385	[['b', 44.66082310676575]]	2.0	seen	False	True	1.4308231067657502	2.964118003845215	1.0	9.0	1628106932.6110	False		False	0.0	1034.4063999652863	146.0
06	ses-015	11	images_fmri/strainer/strainer_04s.jpg	unseen	7276	607	4	None	1567.0	22124.0	4.0	unseen-between	1	6	47.7	2.98	True	False	47.70162701606751	50.68272304534912	[['a', 49.93268609046936]]	-2.0	unseen	False	True	2.232686090469357	2.981096029281616	1.0	10.0	1628106937.0777	False		False			
06	ses-015	12	images_fmri/suspenders/suspenders_04s.jpg	unseen	7396	617	4	None	1590.0	22457.0	4.0	unseen-within	1	6	52.17	2.98	True	True	52.166099071502686	55.14935898780823	[['a', 54.78760099411011]]	-2.0	unseen	False	True	2.6176009941101057	2.983259916305542	1.0	11.0	1628106941.5422	False		False			
06	ses-015	13	images_fmri/kebab/kebab_04n.jpg	seen	4096	342	4	None	866.0	12383.0	4.0	seen-between-within	3	6	56.64	2.98	True	False	56.632660150527954	59.61512804031372	[['a', 59.28281497955322]]	-2.0	unseen	True	True	2.642814979553222	2.9824678897857666	1.0	12.0	1628106946.0088	False		False	0.0	223.47379994392395	13.0
06	ses-015	14	images_fmri/life_jacket/life_jacket_04s.jpg	unseen	4372	365	4	None	925.0	13210.0	4.0	unseen-within	1	6	61.11	2.98	True	True	61.0985541343689	64.08167314529419	[['a', 63.438759088516235]]	-2.0	unseen	False	True	2.328759088516236	2.983119010925293	1.0	13.0	1628106950.4747	False		False			
06	ses-015	15	images_fmri/toilet/toilet_04s.jpg	seen	7768	648	4	None	1671.0	23583.0	4.0	seen-between	2	6	65.58	2.98	False	True	65.58519411087036	68.54800009727478	[['y', 68.14375901222229]]	-2.0	unseen	True	True	2.563759012222292	2.962805986404419	1.0	14.0	1628106954.9613	False		False	14.0	0.0	526.0
06	ses-015	16	images_fmri/cat/cat_04s.jpg	seen	1480	124	4	None	285.0	4165.0	4.0	seen-within-between	3	6	70.05	2.98	False	False	70.04965496063232	73.03250312805176	[['b', 72.62830209732056]]	-1.0	unseen	True	False	2.5783020973205595	2.9828481674194336	1.0	15.0	1628106959.4258	False		False	14.0	0.0	360.0
06	ses-015	17	images_fmri/duster/duster_04s.jpg	unseen	2644	221	4	None	535.0	7767.0	4.0	unseen-between	1	6	74.52	2.98	True	True	74.51566910743713	77.49912810325623	[['a', 76.51389598846436]]	-2.0	unseen	False	True	1.9938959884643597	2.983458995819092	1.0	16.0	1628106963.8918	False		False			
06	ses-015	18	images_fmri/sundae/sundae_04s.jpg	unseen	7348	613	4	None	1583.0	22351.0	4.0	unseen-within	1	6	78.99	2.98	False	False	78.98697113990784	81.96783208847046	[['b', 82.25877213478088]]	-1.0	unseen	False	False	3.268772134780889	2.980860948562622	1.0	17.0	1628106968.3631	False		False			
06	ses-015	19	images_fmri/camera1/camera1_04s.jpg	seen	1288	108	4	None	248.0	3669.0	4.0	seen-between-within	3	6	83.46	2.98	True	False	83.44769811630249	86.43116617202759	[['x', 84.54867601394653]]	2.0	seen	False	True	1.0886760139465397	2.9834680557250977	1.0	18.0	1628106972.8238	False		False	0.0	75.98049998283386	17.0
06	ses-015	20	images_fmri/syrup/syrup_04s.jpg	seen	7444	621	4	None	1606.0	22687.0	4.0	seen-within-between	3	6	87.92999999999998	2.98	False	True	87.93227910995483	90.89761209487916	[['b', 90.1639301776886]]	2.0	seen	False	True	2.23393017768862	2.9653329849243164	1.0	19.0	1628106977.3084	False		False	14.0	0.0	334.0
06	ses-015	21	images_fmri/lemon/lemon_04s.jpg	unseen	4324	361	4	None	915.0	13083.0	4.0	unseen-within	1	6	92.4	2.98	True	True	92.4012360572815	95.38265609741212	[['a', 94.68087816238403]]	-2.0	unseen	False	True	2.2808781623840275	2.9814200401306152	1.0	20.0	1628106981.7773	False		False			
06	ses-015	22	images_fmri/artichoke/artichoke_04s.jpg	seen	208	18	4	None	40.0	556.0	4.0	seen-within	2	6	96.87	2.98	True	True	96.86831903457642	99.84933519363403	[['b', 97.90550804138184]]	2.0	seen	False	True	1.0355080413818314	2.981016159057617	1.0	21.0	1628106986.2444	False		False	0.0	446.98939990997314	63.0
06	ses-015	23	images_fmri/life_jacket/life_jacket_04s.jpg	seen	4372	365	4	None	925.0	13210.0	4.0	seen-within	2	6	101.34	2.98	True	False	101.33678007125854	104.31812810897829	[['x', 102.19996118545532]]	2.0	seen	False	True	0.8599611854553189	2.9813480377197266	1.0	22.0	1628106990.7129	False		False	0.0	40.238199949264526	9.0
06	ses-015	24	images_fmri/earring/earring_04n.jpg	unseen	2668	223	4	None	541.0	7851.0	4.0	unseen-between	1	6	105.81	2.98	False	False	105.8018159866333	108.78145599365234	[['y', 108.06349515914917]]	-2.0	unseen	False	True	2.253495159149168	2.979640007019043	1.0	23.0	1628106995.1779	False		False			
06	ses-015	25	images_fmri/limousine/limousine_04s.jpg	seen	4408	368	4	None	932.0	13308.0	4.0	seen-between-within	3	6	110.28	2.98	True	True	110.28146815299988	113.24867510795592	[['b', 111.14087200164795]]	2.0	seen	False	True	0.8608720016479481	2.9672069549560547	1.0	24.0	1628106999.6576	False		False	0.0	303.94019985198975	31.0
06	ses-015	26	images_fmri/tweezers/tweezers_04s.jpg	seen	8080	674	4	None	1740.0	24525.0	4.0	seen-between-within	3	6	114.75	2.98	True	False	114.7512321472168	117.73090410232544	[['x', 115.78152418136597]]	2.0	seen	False	True	1.0315241813659668	2.9796719551086426	1.0	25.0	1628107004.1273	False		False	0.0	1809.6409001350403	276.0
06	ses-015	27	images_fmri/broom/broom_04s.jpg	seen	1024	86	4	None	204.0	3077.0	4.0	seen-within-between	3	6	119.22	2.98	False	False	119.21975898742676	122.19887399673462	[['b', 121.73327207565308]]	-1.0	unseen	True	False	2.5132720756530773	2.9791150093078613	1.0	26.0	1628107008.5959	False		False	14.0	0.0	632.0
06	ses-015	28	images_fmri/shower/shower_04s.jpg	seen	6712	560	4	None	1434.0	20330.0	4.0	seen-within	2	6	123.69	2.98	True	True	123.6810700893402	126.66378617286682	[['b', 124.94784998893738]]	2.0	seen	False	True	1.2578499889373802	2.9827160835266118	1.0	27.0	1628107013.0572	False		False	0.0	375.45700001716614	47.0
06	ses-015	29	images_fmri/bear/bear_04s.jpg	unseen	496	42	4	None	106.0	1594.0	4.0	unseen-between	1	6	128.16	2.98	False	True	128.1512370109558	131.1304531097412	[['x', 130.7385220527649]]	-1.0	unseen	False	False	2.578522052764896	2.9792160987854004	1.0	28.0	1628107017.5273	False		False			
06	ses-015	30	images_fmri/anchor/anchor_04s.jpg	seen	100	9	4	None	22.0	309.0	4.0	seen-between	2	6	132.63	2.98	False	False	132.63145112991333	135.59866404533386	[['b', 135.76401805877686]]	-1.0	unseen	True	False	3.13401805877686	2.967212915420532	1.0	29.0	1628107022.0076	False		False	14.0	0.0	595.0
06	ses-015	31	images_fmri/hotplate/hotplate_04s.jpg	unseen	3856	322	4	None	807.0	11540.0	4.0	unseen-within	1	6	137.1	2.98	True	False	137.09639406204224	140.08209204673767	[['b', 138.6913251876831], ['a', 139.91825318336487]]	-1.0	unseen	False	False	1.5913251876831112	2.9856979846954346	1.0	30.0	1628107026.4725	False		False			
06	ses-015	32	images_fmri/nest/nest_04s.jpg	seen	5056	422	4	None	1057.0	15044.0	4.0	seen-within	2	6	141.57	2.98	True	False	141.56417298316956	144.54841899871826	[['x', 142.4316840171814]]	2.0	seen	False	True	0.8616840171814033	2.984246015548706	1.0	31.0	1628107030.9403	False		False	0.0	911.3926999568939	144.0
06	ses-015	33	images_fmri/sonogram/sonogram_04s.jpg	seen	6988	583	4	None	1497.0	21181.0	4.0	seen-within-between	3	6	146.04	2.98	False	False	146.03316712379456	149.01306200027466	[['x', 147.39835405349731]]	2.0	seen	False	True	1.3583540534973224	2.9798948764801025	1.0	32.0	1628107035.4093	False		False	14.0	0.0	654.0
06	ses-015	34	images_fmri/blind/blind_04s.jpg	seen	748	63	4	None	141.0	2144.0	4.0	seen-within	2	6	150.51	2.98	False	False	150.5166370868683	153.47936511039734	[['x', 152.47361516952515]]	2.0	seen	False	True	1.963615169525156	2.9627280235290527	1.0	33.0	1628107039.8927	False		False	0.0	897.9939999580383	141.0
06	ses-015	35	images_fmri/key/key_04s.jpg	unseen	4120	344	4	None	870.0	12444.0	4.0	unseen-between	1	6	154.98	2.98	True	True	154.98045301437378	157.96657800674438	[['a', 158.05318999290466]]	-2.0	unseen	False	True	3.0731899929046733	2.986124992370605	1.0	34.0	1628107044.3566	False		False			
06	ses-015	36	images_fmri/lemon/lemon_04s.jpg	seen	4324	361	4	None	915.0	13083.0	4.0	seen-within	2	6	159.45	2.98	True	True	159.4458830356598	162.43034100532532	[['b', 160.55014204978943], ['x', 160.97592616081238]]	2.0	seen	False	True	1.10014204978944	2.984457969665528	1.0	35.0	1628107048.8220	False		False	0.0	67.04470014572144	15.0
06	ses-015	37	images_fmri/hotplate/hotplate_04s.jpg	seen	3856	322	4	None	807.0	11540.0	4.0	seen-within	2	6	163.92	2.98	False	False	163.91432213783264	166.90162301063538	[['x', 164.8232491016388]]	2.0	seen	False	True	0.9032491016388065	2.9873008728027344	1.0	36.0	1628107053.2904	False		False	0.0	26.81789994239807	6.0
06	ses-015	38	images_fmri/camcorder/camcorder_04s.jpg	seen	1264	106	4	None	245.0	3630.0	4.0	seen-within	2	6	168.39	2.98	False	False	168.3830041885376	171.36350798606873	[['x', 169.33945417404175]]	2.0	seen	False	True	0.9494541740417616	2.980503797531128	1.0	37.0	1628107057.7591	False		False	0.0	451.4414999485016	64.0
06	ses-015	39	images_fmri/mouse1/mouse1_04s.jpg	seen	4936	412	4	None	1027.0	14635.0	4.0	seen-between-within	3	6	172.86	2.98	False	True	172.86595511436462	175.82922911643982	[['y', 175.62962317466736]]	-2.0	unseen	True	True	2.7696231746673448	2.9632740020751958	1.0	38.0	1628107062.2421	False		False	0.0	536.3861999511719	83.0
06	ses-015	40	images_fmri/truck/truck_04n.jpg	seen	8020	669	4	None	1721.0	24263.0	4.0	seen-between-within	3	6	177.32999999999996	2.98	False	True	177.33068418502808	180.3133909702301	[['b', 179.19343519210815]]	2.0	seen	False	True	1.8634351921081984	2.9827067852020264	1.0	39.0	1628107066.7068	False		False	0.0	174.3287000656128	39.0
06	ses-015	41	images_fmri/horseshoe/horseshoe_04n.jpg	unseen	3832	320	4	None	800.0	11441.0	4.0	unseen-between	1	6	181.8	2.98	True	True	181.80105113983157	184.78109908103943							2.9800479412078857	1.0	40.0	1628107071.1772	False		False			
06	ses-015	42	images_fmri/toilet/toilet_04s.jpg	seen	7768	648	4	None	1671.0	23583.0	4.0	seen-between-within	3	6	186.27	2.98	False	False	186.26794695854187	189.2469379901886	[['x', 187.14749217033386]]	2.0	seen	False	True	0.8774921703338521	2.9789910316467285	1.0	41.0	1628107075.6440	False		False	0.0	120.68270015716553	27.0
06	ses-015	43	images_fmri/cage/cage_04s.jpg	seen	1228	103	4	None	237.0	3521.0	4.0	seen-between	2	6	190.74	2.98	True	True	190.73319816589355	193.7133481502533	[['a', 193.16199803352356]]	-2.0	unseen	True	True	2.4219980335235505	2.980149984359741	1.0	42.0	1628107080.1093	False		False	14.0	0.0	392.0
06	ses-015	44	images_fmri/scone/scone_04s.jpg	seen	6520	544	4	None	1381.0	19612.0	4.0	seen-between	2	6	195.21	2.98	False	True	195.21269702911377	198.18422317504883	[['x', 198.35201406478882]]	-1.0	unseen	True	False	3.1420140647888104	2.9715261459350586	1.0	43.0	1628107084.5888	False		False	14.0	0.0	611.0
06	ses-015	45	images_fmri/pudding/pudding_04s.jpg	seen	5992	500	4	None	1247.0	17731.0	4.0	seen-within	2	6	199.68	2.98	False	False	199.67948603630063	202.66539216041565	[['x', 200.69095516204834]]	2.0	seen	False	True	1.010955162048333	2.9859061241149902	1.0	44.0	1628107089.0556	False		False	0.0	183.27619981765747	41.0
06	ses-015	46	images_fmri/sundae/sundae_04s.jpg	seen	7348	613	4	None	1583.0	22351.0	4.0	seen-within	2	6	204.15	2.98	False	True	204.1491270065308	207.1291961669922	[['b', 206.624263048172]]	2.0	seen	False	True	2.4742630481719914	2.980069160461426	1.0	45.0	1628107093.5252	False		False	0.0	125.16209983825684	28.0
06	ses-015	47	images_fmri/chicken_wire/chicken_wire_04s.jpg	unseen	1672	140	4	None	323.0	4682.0	4.0	unseen-between	1	6	208.62	2.98	False	True	208.6113510131836	211.59585618972775	[['y', 211.47311902046204]]	-2.0	unseen	False	True	2.853119020462032	2.984505176544189	1.0	46.0	1628107097.9875	False		False			
06	ses-015	48	images_fmri/anchor/anchor_04s.jpg	seen	100	9	4	None	22.0	309.0	4.0	seen-between-within	3	6	213.09	2.98	False	True	213.07879996299744	216.0628089904785	[['b', 215.65489196777344]]	2.0	seen	False	True	2.564891967773434	2.984009027481079	1.0	47.0	1628107102.4549	False		False	0.0	80.44729995727539	18.0
06	ses-015	49	images_fmri/tiramisu/tiramisu_04s.jpg	seen	7732	645	4	None	1664.0	23483.0	4.0	seen-between-within	3	6	217.56	2.98	False	False	217.5618531703949	220.532968044281	[['x', 218.47380113601685]]	2.0	seen	False	True	0.9138011360168434	2.9711148738861084	1.0	48.0	1628107106.9380	False		False	0.0	2024.1991999149323	324.0
06	ses-015	50	images_fmri/doormat/doormat_04s.jpg	seen	2536	212	4	None	512.0	7418.0	4.0	seen-between-within	3	6	222.03	2.98	True	True	222.03386616706848	225.0125241279602	[['b', 223.3698341846466]]	2.0	seen	False	True	1.3398341846466053	2.978657960891724	1.0	49.0	1628107111.4100	False		False	0.0	1266.8398001194	198.0
06	ses-015	51	images_fmri/headlamp/headlamp_04s.jpg	unseen	3688	308	4	None	765.0	10955.0	4.0	unseen-between	1	6	226.5	2.98	True	False	226.4987990856171	229.478844165802	[['a', 229.33080911636353]]	-2.0	unseen	False	True	2.8308091163635254	2.9800450801849365	1.0	50.0	1628107115.8749	False		False			
06	ses-015	52	images_fmri/suspenders/suspenders_04s.jpg	seen	7396	617	4	None	1590.0	22457.0	4.0	seen-within	2	6	230.97	2.98	True	True	230.96194195747373	233.9444420337677	[['b', 231.95889496803284]]	2.0	seen	False	True	0.988894968032838	2.9825000762939453	1.0	51.0	1628107120.3380	False		False	0.0	178.79579997062683	40.0
06	ses-015	53	images_fmri/microphone/microphone_04s.jpg	unseen	4756	397	4	None	999.0	14222.0	4.0	unseen-between	1	6	235.44	2.98	True	False	235.42857909202576	238.4115550518036	[['a', 237.29575514793396]]	-2.0	unseen	False	True	1.8557551479339625	2.982975959777832	1.0	52.0	1628107124.8047	False		False			
06	ses-015	54	images_fmri/steak/steak_04s.jpg	seen	7204	601	4	None	1545.0	21827.0	4.0	seen-within-between	3	6	239.91	2.98	True	True	239.9117531776428	242.87728595733645	[['b', 242.20168018341064]]	2.0	seen	False	True	2.291680183410648	2.9655327796936035	1.0	53.0	1628107129.2879	False		False	14.0	0.0	354.0
06	ses-015	55	images_fmri/pigeon/pigeon_04s.jpg	unseen	5584	466	4	None	1172.0	16676.0	4.0	unseen-between	1	6	244.38	2.98	True	False	244.38090896606445	247.36160111427307	[['a', 246.84216117858887]]	-2.0	unseen	False	True	2.462161178588872	2.980692148208618	1.0	54.0	1628107133.7570	False		False			
06	ses-015	56	images_fmri/vase/vase_04s.jpg	seen	8176	682	4	None	1754.0	24714.0	4.0	seen-within	2	6	248.85	2.98	False	True	248.84470200538635	251.8289451599121	[['b', 250.48695015907288]]	2.0	seen	False	True	1.6369501590728817	2.984243154525757	1.0	55.0	1628107138.2208	False		False	0.0	1636.0616998672485	259.0
06	ses-015	57	images_fmri/crouton/crouton_04n.jpg	unseen	2212	185	4	None	446.0	6453.0	4.0	unseen-between	1	6	253.32	2.98	True	False	253.312087059021	256.29372096061707	[['a', 254.8611650466919]]	-2.0	unseen	False	True	1.5411650466919014	2.9816339015960693	1.0	56.0	1628107142.6882	False		False			
06	ses-015	58	images_fmri/scone/scone_04s.jpg	seen	6520	544	4	None	1381.0	19612.0	4.0	seen-between-within	3	6	257.79	2.98	True	True	257.783548116684	260.76000809669495	[['a', 259.67943000793457], ['b', 260.2461380958557]]	-2.0	unseen	True	True	1.8894300079345496	2.9764599800109863	1.0	57.0	1628107147.1597	False		False	0.0	62.570899963378906	14.0
06	ses-015	59	images_fmri/cage/cage_04s.jpg	seen	1228	103	4	None	237.0	3521.0	4.0	seen-between-within	3	6	262.26	2.98	False	False	262.2618660926819	265.232048034668	[['x', 266.189435005188]]	2.0	seen	False	True	3.929435005187997	2.970181941986084	1.0	58.0	1628107151.6380	False		False	0.0	71.52870011329651	16.0
06	ses-015	60	images_fmri/whip/whip_04s.jpg	unseen	8452	705	4	None	1810.0	25491.0	4.0	unseen-between	1	6	266.73	2.98	False	False	266.72666907310486	269.71091413497925	[['y', 268.52734112739563]]	-2.0	unseen	False	True	1.7973411273956117	2.9842450618743896	1.0	59.0	1628107156.1028	False		False			
