subject	session	TrialNumber	image_path	condition	image_nr	category_nr	exemplar_nr	test_image_nr	things_category_nr	things_image_nr	things_exemplar_nr	subcondition	repetition	run	onset	duration	response_mapping_flip_h	response_mapping_flip_v	onset_flip	offset_flip	keypresses	response	response_txt	error	response_confidence	response_time	duration_flip	ran	order	session_trial_time	atypical	atypical_log	exclude_session	delay_days	delay_seconds	trials_since_lastrep
06	ses-001	1	images_fmri/cashew/cashew_05s.jpg	unseen	1457	122	5	None	282.0	4127.0	5.0	unseen-within	1	3	3.0	2.98	False	True	2.9833059310913086	5.950202941894531	[['y', 4.509702920913696]]	-2.0	unseen	False	True	1.5097029209136963	2.9668970108032227	1.0	0.0	1618428967.6092	False		False			
06	ses-001	2	images_fmri/cashew/cashew_05s.jpg	seen	1457	122	5	None	282.0	4127.0	5.0	seen-within	2	3	7.47	2.98	False	True	7.449747085571289	10.433130025863647	[['b', 8.701478958129883]]	2.0	seen	False	True	1.231478958129883	2.9833829402923584	1.0	1.0	1618428972.0756	False		False	0.0	4.466399908065796	1.0
06	ses-001	3	images_fmri/shrimp/shrimp_05s.jpg	unseen	6749	563	5	None	1439.0	20405.0	5.0	unseen-within	1	3	11.94	2.98	True	False	11.916686058044434	14.900464057922363	[['a', 13.428383827209473]]	-2.0	unseen	False	True	1.4883838272094732	2.9837779998779297	1.0	2.0	1618428976.5426	False		False			
06	ses-001	4	images_fmri/sloth/sloth_05s.jpg	unseen	6857	572	5	None	1472.0	20855.0	5.0	unseen-within	1	3	16.41	2.98	False	True	16.38653302192688	19.370784997940063	[['y', 18.399290800094604]]	-2.0	unseen	False	True	1.9892908000946044	2.984251976013184	1.0	3.0	1618428981.0124	False		False			
06	ses-001	5	images_fmri/iron/iron_05s.jpg	unseen	3953	330	5	None	833.0	11908.0	5.0	unseen-within	1	3	20.88	2.98	True	False	20.868175983428955	23.83468198776245	[['a', 22.448120832443237]]	-2.0	unseen	False	True	1.5681208324432383	2.966506004333496	1.0	4.0	1618428985.4941	False		False			
06	ses-001	6	images_fmri/nose/nose_05s.jpg	unseen	5093	425	5	None	1064.0	15137.0	5.0	unseen-within	1	3	25.35	2.98	True	False	25.33262586593628	28.299635887146	[['a', 26.64244294166565]]	-2.0	unseen	False	True	1.292442941665648	2.967010021209717	1.0	5.0	1618428989.9585	False		False			
06	ses-001	7	images_fmri/chest1/chest1_05s.jpg	unseen	1649	138	5	None	320.0	4645.0	5.0	unseen-between	1	3	29.82	2.98	True	True	29.79974603652954	32.78253388404846	[['a', 31.953380823135376]]	-2.0	unseen	False	True	2.133380823135376	2.982787847518921	1.0	6.0	1618428994.4256	False		False			
06	ses-001	8	images_fmri/iron/iron_05s.jpg	seen	3953	330	5	None	833.0	11908.0	5.0	seen-within	2	3	34.29	2.98	True	False	34.26608395576477	37.24907088279724	[['x', 35.3879029750824]]	2.0	seen	False	True	1.0979029750823983	2.9829869270324707	1.0	7.0	1618428998.8920	False		False	0.0	13.397899866104126	3.0
06	ses-001	9	images_fmri/touchpad/touchpad_05s.jpg	unseen	7877	657	5	None	1692.0	23874.0	5.0	unseen-between	1	3	38.76	2.98	False	True	38.73297786712647	41.71564102172852	[['y', 40.52619290351868]]	-2.0	unseen	False	True	1.7661929035186787	2.982663154602051	1.0	8.0	1618429003.3589	False		False			
06	ses-001	10	images_fmri/popsicle/popsicle_05s.jpg	unseen	5837	487	5	None	1226.0	17445.0	5.0	unseen-within	1	3	43.23	2.98	False	False	43.21552300453186	46.18263006210327	[['y', 45.03528189659119]]	-2.0	unseen	False	True	1.8052818965911896	2.967107057571411	1.0	9.0	1618429007.8414	False		False			
06	ses-001	11	images_fmri/bagel/bagel_05s.jpg	unseen	305	26	5	None	56.0	816.0	5.0	unseen-between	1	3	47.7	2.98	True	True	47.682146072387695	50.66537094116211	[['a', 50.33798885345459]]	-2.0	unseen	False	True	2.637988853454587	2.983224868774414	1.0	10.0	1618429012.3080	False		False			
06	ses-001	12	images_fmri/tie/tie_05s.jpg	unseen	7709	643	5	None	1659.0	23418.0	5.0	unseen-between	1	3	52.17	2.98	True	True	52.14865303039551	55.131996870040894	[['a', 53.5926239490509]]	-2.0	unseen	False	True	1.4226239490509016	2.9833438396453857	1.0	11.0	1618429016.7746	False		False			
06	ses-001	13	images_fmri/radiator/radiator_05s.jpg	unseen	6089	508	5	None	1273.0	18133.0	5.0	unseen-within	1	3	56.64	2.98	False	False	56.61578893661499	59.59850788116455	[['y', 58.21587586402893]]	-2.0	unseen	False	True	1.57587586402893	2.9827189445495605	1.0	12.0	1618429021.2417	False		False			
06	ses-001	14	images_fmri/skunk/skunk_05s.jpg	seen	6821	569	5	None	1460.0	20698.0	5.0	seen-within	2	3	61.11	2.98	False	False	61.08320593833923	64.06716895103455	[['x', 62.73083186149597]]	2.0	seen	False	True	1.6208318614959722	2.9839630126953125	1.0	13.0	1618429025.7091	False		False	0.0	283.6444001197815	41.0
06	ses-001	15	images_fmri/record/record_05s.jpg	unseen	6197	517	5	None	1296.0	18435.0	5.0	unseen-between	1	3	65.58	2.98	False	True	65.5650269985199	68.53194308280945	[['y', 67.51802587509155]]	-2.0	unseen	False	True	1.9380258750915544	2.966916084289551	1.0	14.0	1618429030.1909	False		False			
06	ses-001	16	images_fmri/mascara/mascara_05s.jpg	seen	4661	389	5	None	979.0	13951.0	5.0	seen-within	2	3	70.05	2.98	True	True	70.03160285949707	73.01484107971191	[['b', 71.47574281692505]]	2.0	seen	False	True	1.4257428169250517	2.983238220214844	1.0	15.0	1618429034.6575	False		False	0.0	270.2430000305176	38.0
06	ses-001	17	images_fmri/popsicle/popsicle_05s.jpg	seen	5837	487	5	None	1226.0	17445.0	5.0	seen-within	2	3	74.52	2.98	True	True	74.49851703643799	77.48142385482788	[['b', 75.73410201072693]]	2.0	seen	False	True	1.2141020107269327	2.9829068183898926	1.0	16.0	1618429039.1244	False		False	0.0	31.282999992370605	7.0
06	ses-001	18	images_fmri/punching_bag/punching_bag_05s.jpg	unseen	6029	503	5	None	1257.0	17906.0	5.0	unseen-between	1	3	78.99	2.98	False	False	78.96536993980408	81.948646068573	[['y', 80.22913479804993]]	-2.0	unseen	False	True	1.239134798049932	2.983276128768921	1.0	17.0	1618429043.5913	False		False			
06	ses-001	19	images_fmri/pencil_sharpener/pencil_sharpener_05s.jpg	unseen	5477	457	5	None	1144.0	16273.0	5.0	unseen-between	1	3	83.46	2.98	True	True	83.43161201477051	86.41521501541138	[['a', 85.09769296646118]]	-2.0	unseen	False	True	1.637692966461188	2.983603000640869	1.0	18.0	1618429048.0575	False		False			
06	ses-001	20	images_fmri/lock/lock_05s.jpg	unseen	4493	375	5	None	941.0	13434.0	5.0	unseen-between	1	3	87.92999999999998	2.98	True	False	87.91452503204346	90.88162398338318	[['a', 90.1877498626709]]	-2.0	unseen	False	True	2.25774986267092	2.9670989513397217	1.0	19.0	1618429052.5404	False		False			
06	ses-001	21	images_fmri/pecan/pecan_05s.jpg	unseen	5441	454	5	None	1136.0	16171.0	5.0	unseen-within	1	3	92.4	2.98	False	True	92.38143801689148	95.36440300941469	[['y', 94.34180092811584]]	-2.0	unseen	False	True	1.941800928115839	2.9829649925231934	1.0	20.0	1618429057.0073	False		False			
06	ses-001	22	images_fmri/umbrella/umbrella_05s.jpg	unseen	8117	677	5	None	1744.0	24581.0	5.0	unseen-between	1	3	96.87	2.98	True	False	96.84796500205994	99.83133888244627	[['a', 98.29949998855591]]	-2.0	unseen	False	True	1.4294999885559037	2.9833738803863525	1.0	21.0	1618429061.4739	False		False			
06	ses-001	23	images_fmri/pinwheel/pinwheel_05s.jpg	unseen	5645	471	5	None	1186.0	16870.0	5.0	unseen-between	1	3	101.34	2.98	True	False	101.31457996368408	104.2973849773407	[['a', 102.57337188720703]]	-2.0	unseen	False	True	1.2333718872070278	2.982805013656616	1.0	22.0	1618429065.9405	False		False			
06	ses-001	24	images_fmri/extinguisher/extinguisher_05s.jpg	unseen	2801	234	5	None	564.0	8163.0	5.0	unseen-between	1	3	105.81	2.98	False	True	105.78119707107544	108.7664749622345	[['y', 107.56367182731628]]	-2.0	unseen	False	True	1.753671827316282	2.9852778911590576	1.0	23.0	1618429070.4071	False		False			
06	ses-001	25	images_fmri/helicopter/helicopter_05s.jpg	unseen	3737	312	5	None	776.0	11103.0	5.0	unseen-between	1	3	110.28	2.98	False	True	110.26489090919496	113.2359299659729	[['y', 112.4913477897644]]	-2.0	unseen	False	True	2.211347789764403	2.971039056777954	1.0	24.0	1618429074.8908	False		False			
06	ses-001	26	images_fmri/toaster/toaster_05s.jpg	unseen	7757	647	5	None	1667.0	23530.0	5.0	unseen-within	1	3	114.75	2.98	True	True	114.7323670387268	117.71580696105956	[['a', 116.97946882247925]]	-2.0	unseen	False	True	2.229468822479248	2.983439922332764	1.0	25.0	1618429079.3583	False		False			
06	ses-001	27	images_fmri/puck/puck_05s.jpg	unseen	5981	499	5	None	1246.0	17720.0	5.0	unseen-between	1	3	119.22	2.98	True	False	119.19712090492249	122.18035793304443	[['a', 120.99958682060242]]	-2.0	unseen	False	True	1.779586820602418	2.983237028121948	1.0	26.0	1618429083.8230	False		False			
06	ses-001	28	images_fmri/shrimp/shrimp_05s.jpg	seen	6749	563	5	None	1439.0	20405.0	5.0	seen-within	2	3	123.69	2.98	False	False	123.66350507736206	126.6472680568695	[['x', 124.76253986358643]]	2.0	seen	False	True	1.072539863586428	2.9837629795074463	1.0	27.0	1618429088.2894	False		False	0.0	111.74680018424988	25.0
06	ses-001	29	images_fmri/ball/ball_05s.jpg	unseen	317	27	5	None	60.0	884.0	5.0	unseen-between	1	3	128.16	2.98	True	False	128.13056588172913	131.11344003677368	[['a', 130.32227897644043]]	-2.0	unseen	False	True	2.162278976440433	2.982874155044556	1.0	28.0	1618429092.7565	False		False			
06	ses-001	30	images_fmri/chalk/chalk_05s.jpg	unseen	1565	131	5	None	303.0	4415.0	5.0	unseen-within	1	3	132.63	2.98	False	True	132.6134159564972	135.5803849697113	[['y', 134.6543049812317]]	-2.0	unseen	False	True	2.024304981231694	2.9669690132141118	1.0	29.0	1618429097.2393	False		False			
06	ses-001	31	images_fmri/garbage/garbage_05s.jpg	unseen	3161	264	5	None	656.0	9423.0	5.0	unseen-within	1	3	137.1	2.98	True	False	137.07998204231262	140.06317806243896	[['a', 139.31288981437683]]	-2.0	unseen	False	True	2.2128898143768367	2.9831960201263428	1.0	30.0	1618429101.7059	False		False			
06	ses-001	32	images_fmri/sloth/sloth_05s.jpg	seen	6857	572	5	None	1472.0	20855.0	5.0	seen-within	2	3	141.57	2.98	True	True	141.54695987701416	144.53024792671204	[['b', 142.77210092544556]]	2.0	seen	False	True	1.2021009254455637	2.983288049697876	1.0	31.0	1618429106.1729	False		False	0.0	125.16050004959106	28.0
06	ses-001	33	images_fmri/fig/fig_05s.jpg	unseen	2909	243	5	None	582.0	8423.0	5.0	unseen-between	1	3	146.04	2.98	False	True	146.01392197608948	148.9963140487671	[['y', 147.7735719680786]]	-2.0	unseen	False	True	1.7335719680786212	2.9823920726776123	1.0	32.0	1618429110.6398	False		False			
06	ses-001	34	images_fmri/shovel/shovel_05s.jpg	unseen	6701	559	5	None	1433.0	20319.0	5.0	unseen-within	1	3	150.51	2.98	False	False	150.4963960647583	153.46331787109375	[['y', 152.45111680030823]]	-2.0	unseen	False	True	1.9411168003082369	2.966921806335449	1.0	33.0	1618429115.1223	False		False			
06	ses-001	35	images_fmri/bassinet/bassinet_05s.jpg	unseen	437	37	5	None	86.0	1271.0	5.0	unseen-between	1	3	154.98	2.98	False	False	154.96282386779785	157.94883608818054	[['y', 158.04413485527039]]	-2.0	unseen	False	True	3.064134855270396	2.9860122203826904	1.0	34.0	1618429119.5887	False		False			
06	ses-001	36	images_fmri/hood/hood_05s.jpg	seen	3809	318	5	None	792.0	11331.0	5.0	seen-within	2	3	159.45	2.98	True	True	159.4317979812622	162.41548705101013	[['b', 160.624449968338]]	2.0	seen	False	True	1.174449968338024	2.983689069747925	1.0	35.0	1618429124.0577	False		False	0.0	332.8080999851227	52.0
06	ses-001	37	images_fmri/banana_split/banana_split_05s.jpg	unseen	365	31	5	None	66.0	982.0	5.0	unseen-between	1	3	163.92	2.98	False	True	163.90388894081116	166.8838300704956	[['y', 165.28685784339905]]	-2.0	unseen	False	True	1.3668578433990604	2.979941129684448	1.0	36.0	1618429128.5298	False		False			
06	ses-001	38	images_fmri/wheelbarrow/wheelbarrow_05s.jpg	unseen	8429	703	5	None	1808.0	25468.0	5.0	unseen-between	1	3	168.39	2.98	True	True	168.36448907852173	171.34656500816345	[['b', 170.79610180854797]]	2.0	seen	True	True	2.4061018085479877	2.982075929641724	1.0	37.0	1618429132.9904	False		False			
06	ses-001	39	images_fmri/shovel/shovel_05s.jpg	seen	6701	559	5	None	1433.0	20319.0	5.0	seen-within	2	3	172.86	2.98	True	False	172.84728693962097	175.8137629032135	[['x', 174.5114848613739]]	2.0	seen	False	True	1.6514848613738875	2.9664759635925293	1.0	38.0	1618429137.4732	False		False	0.0	22.350900173187256	5.0
06	ses-001	40	images_fmri/granola/granola_05s.jpg	unseen	3377	282	5	None	702.0	10055.0	5.0	unseen-between	1	3	177.32999999999996	2.98	False	False	177.31324005126953	180.29753804206848	[['y', 178.7332158088684]]	-2.0	unseen	False	True	1.4032158088684523	2.98429799079895	1.0	39.0	1618429141.9391	False		False			
06	ses-001	41	images_fmri/closet/closet_05s.jpg	seen	1829	153	5	None	361.0	5218.0	5.0	seen-within	2	3	181.8	2.98	True	False	181.77975606918332	184.76390886306763	[['x', 183.05171084403992]]	2.0	seen	False	True	1.2517108440399056	2.9841527938842773	1.0	40.0	1618429146.4057	False		False	0.0	386.457799911499	64.0
06	ses-001	42	images_fmri/nose/nose_05s.jpg	seen	5093	425	5	None	1064.0	15137.0	5.0	seen-within	2	3	186.27	2.98	False	False	186.2474708557129	189.22947788238525	[['x', 187.2716579437256]]	2.0	seen	False	True	1.0016579437255757	2.9820070266723637	1.0	41.0	1618429150.8734	False		False	0.0	160.91490006446838	36.0
06	ses-001	43	images_fmri/toaster/toaster_05s.jpg	seen	7757	647	5	None	1667.0	23530.0	5.0	seen-within	2	3	190.74	2.98	False	True	190.71393394470212	193.69727087020877	[['b', 192.77168583869934]]	2.0	seen	False	True	2.031685838699332	2.983336925506592	1.0	42.0	1618429155.3398	False		False	0.0	75.98149991035461	17.0
06	ses-001	44	images_fmri/gauze/gauze_05s.jpg	unseen	3209	268	5	None	665.0	9539.0	5.0	unseen-between	1	3	195.21	2.98	True	False	195.196702003479	198.16402888298035	[['a', 197.15286588668823]]	-2.0	unseen	False	True	1.9428658866882245	2.9673268795013428	1.0	43.0	1618429159.8226	False		False			
06	ses-001	45	images_fmri/seagull/seagull_05s.jpg	unseen	6581	549	5	None	1396.0	19827.0	5.0	unseen-between	1	3	199.68	2.98	True	False	199.6624970436096	202.64653205871585	[['a', 201.19592785835266]]	-2.0	unseen	False	True	1.5159278583526543	2.984035015106201	1.0	44.0	1618429164.2884	False		False			
06	ses-001	46	images_fmri/roof_rack/roof_rack_05s.jpg	seen	6377	532	5	None	1330.0	18918.0	5.0	seen-within	2	3	204.15	2.98	False	True	204.1302740573883	207.1147148609161	[['b', 206.51261687278748]]	2.0	seen	False	True	2.36261687278747	2.984440803527832	1.0	45.0	1618429168.7562	False		False	0.0	328.3434000015259	51.0
06	ses-001	47	images_fmri/garbage/garbage_05s.jpg	seen	3161	264	5	None	656.0	9423.0	5.0	seen-within	2	3	208.62	2.98	True	False	208.59504890441892	211.578430891037	[['x', 209.79418182373047]]	2.0	seen	False	True	1.1741818237304642	2.983381986618042	1.0	46.0	1618429173.2209	False		False	0.0	71.51500010490417	16.0
06	ses-001	48	images_fmri/pecan/pecan_05s.jpg	seen	5441	454	5	None	1136.0	16171.0	5.0	seen-within	2	3	213.09	2.98	False	True	213.0617380142212	216.04507303237915	[['b', 214.99849390983582]]	2.0	seen	False	True	1.908493909835812	2.983335018157959	1.0	47.0	1618429177.6876	False		False	0.0	120.68029999732971	27.0
06	ses-001	49	images_fmri/butterfly/butterfly_05s.jpg	unseen	1193	100	5	None	230.0	3424.0	5.0	unseen-between	1	3	217.56	2.98	False	True	217.5445520877838	220.51187801361084	[['y', 218.98451399803162]]	-2.0	unseen	False	True	1.424513998031614	2.9673259258270264	1.0	48.0	1618429182.1705	False		False			
06	ses-001	50	images_fmri/lime/lime_05s.jpg	seen	4397	367	5	None	931.0	13295.0	5.0	seen-within	2	3	222.03	2.98	False	False	222.0115180015564	224.99446892738345	[['x', 224.23982977867126]]	2.0	seen	False	True	2.2098297786712635	2.9829509258270264	1.0	49.0	1618429186.6374	False		False	0.0	471.3885998725891	83.0
06	ses-001	51	images_fmri/odometer/odometer_05s.jpg	unseen	5141	429	5	None	1072.0	15240.0	5.0	unseen-between	1	3	226.5	2.98	False	False	226.47808289527893	229.4609749317169	[['y', 228.6576747894287]]	-2.0	unseen	False	True	2.157674789428711	2.9828920364379883	1.0	50.0	1618429191.1040	False		False			
06	ses-001	52	images_fmri/chalk/chalk_05s.jpg	seen	1565	131	5	None	303.0	4415.0	5.0	seen-within	2	3	230.97	2.98	False	False	230.94430589675903	233.9277510643005	[['x', 232.16571879386902]]	2.0	seen	False	True	1.1957187938690197	2.983445167541504	1.0	51.0	1618429195.5702	False		False	0.0	98.33089995384216	22.0
06	ses-001	53	images_fmri/papaya/papaya_05s.jpg	unseen	5321	444	5	None	1112.0	15821.0	5.0	unseen-between	1	3	235.44	2.98	True	True	235.4111819267273	238.39406394958496	[['a', 237.259831905365]]	-2.0	unseen	False	True	1.8198319053649925	2.982882022857666	1.0	52.0	1618429200.0371	False		False			
06	ses-001	54	images_fmri/clarinet/clarinet_05n.jpg	unseen	1781	149	5	None	351.0	5079.0	5.0	unseen-between	1	3	239.91	2.98	True	False	239.894268989563	242.8609960079193	[['a', 242.1625587940216]]	-2.0	unseen	False	True	2.25255879402161	2.9667270183563232	1.0	53.0	1618429204.5202	False		False			
06	ses-001	55	images_fmri/pistachio/pistachio_05s.jpg	unseen	5657	472	5	None	1189.0	16909.0	5.0	unseen-between	1	3	244.38	2.98	True	True	244.360563993454	247.34381794929504	[['a', 246.4269847869873]]	-2.0	unseen	False	True	2.046984786987309	2.9832539558410645	1.0	54.0	1618429208.9865	False		False			
06	ses-001	56	images_fmri/battery/battery_05n.jpg	unseen	449	38	5	None	98.0	1473.0	5.0	unseen-between	1	3	248.85	2.98	False	True	248.82710194587708	251.81330490112305	[['y', 250.25571393966675]]	-2.0	unseen	False	True	1.4057139396667535	2.986202955245972	1.0	55.0	1618429213.4530	False		False			
06	ses-001	57	images_fmri/zucchini/zucchini_05s.jpg	seen	8633	720	5	None	1854.0	26099.0	5.0	seen-within	2	3	253.32	2.98	False	True	253.29625988006592	256.2823600769043	[['b', 254.6670320034027]]	2.0	seen	False	True	1.3470320034027168	2.986100196838379	1.0	56.0	1618429217.9222	False		False	0.0	551.8389999866486	101.0
06	ses-001	58	images_fmri/ping-pong_table/ping-pong_table_05s.jpg	unseen	5633	470	5	None	1185.0	16857.0	5.0	unseen-between	1	3	257.79	2.98	True	False	257.760596036911	260.7434730529785	[['a', 259.6255397796631]]	-2.0	unseen	False	True	1.8355397796630653	2.982877016067505	1.0	57.0	1618429222.3865	False		False			
06	ses-001	59	images_fmri/t-shirt/t-shirt_05s.jpg	seen	7457	622	5	None	1607.0	22700.0	5.0	seen-within	2	3	262.26	2.98	False	False	262.2433829307556	265.210373878479	[['x', 263.44657588005066]]	2.0	seen	False	True	1.1865758800506685	2.9669909477233887	1.0	58.0	1618429226.8693	False		False	0.0	444.5722999572754	77.0
06	ses-001	60	images_fmri/radiator/radiator_05s.jpg	seen	6089	508	5	None	1273.0	18133.0	5.0	seen-within	2	3	266.73	2.98	True	True	266.7105338573456	269.6932759284973	[['b', 269.21816182136536]]	2.0	seen	False	True	2.4881618213653383	2.9827420711517334	1.0	59.0	1618429231.3364	False		False	0.0	210.09470009803772	47.0
