subject	session	TrialNumber	image_path	condition	image_nr	category_nr	exemplar_nr	test_image_nr	things_category_nr	things_image_nr	things_exemplar_nr	subcondition	repetition	run	onset	duration	response_mapping_flip_h	response_mapping_flip_v	onset_flip	offset_flip	keypresses	response	response_txt	error	response_confidence	response_time	duration_flip	ran	order	session_trial_time	atypical	atypical_log	exclude_session	delay_days	delay_seconds	trials_since_lastrep
01	ses-029	1	images_fmri/anklet/anklet_05s.jpg	seen	113	10	5	None	24.0	336.0	5.0	seen-between	2	5	3.0	2.98	False	False	3.002790047088638	5.982324146898463	[['x', 5.42627485608682]]	2.0	seen	False	True	2.4262748560868204	2.9795340998098254	1.0	0.0	1982013.2255	False		False	7.0	0.0	537.0
01	ses-029	2	images_fmri/hula_hoop/hula_hoop_05s.jpg	unseen	3893	325	5	None	811.0	11598.0	5.0	unseen-within	1	5	7.47	2.98	False	False	7.46523117297329	10.454242295119911	[['b', 8.738230590941384]]	-1.0	unseen	False	False	1.268230590941385	2.9890111221466213	1.0	1.0	1982017.6879	False		False			
01	ses-029	3	images_fmri/plastic_film/plastic_film_05s.jpg	unseen	5681	474	5	None	1197.0	17016.0	5.0	unseen-within	1	5	11.94	2.98	False	True	11.935854891082272	14.915949519025162	[['x', 13.18517743400298]]	-1.0	unseen	False	False	1.245177434002981	2.98009462794289	1.0	2.0	1982022.1586	False		False			
01	ses-029	4	images_fmri/apple/apple_05s.jpg	seen	185	16	5	None	31.0	438.0	5.0	seen-within	2	5	16.41	2.98	True	False	16.403661727905273	19.382937919115648	[['x', 17.573434693040326]]	2.0	seen	False	True	1.163434693040326	2.9792761912103742	1.0	3.0	1982026.6264	False		False	0.0	271.41439999989234	31.0
01	ses-029	5	images_fmri/tractor/tractor_05n.jpg	seen	7913	660	5	None	1696.0	23927.0	5.0	seen-between	2	5	20.88	2.98	True	True	20.88262139610015	23.849106834968552	[['x', 22.206099642906338]]	-1.0	unseen	True	False	1.326099642906339	2.9664854388684034	1.0	4.0	1982031.1053	False		False	7.0	0.0	558.0
01	ses-029	6	images_fmri/paperclip/paperclip_05s.jpg	unseen	5345	446	5	None	1117.0	15887.0	5.0	unseen-between	1	5	25.35	2.98	True	True	25.35190260503441	28.33174026105553	[['x', 26.864948259899393]]	-1.0	unseen	False	False	1.5149482598993913	2.979837656021118	1.0	5.0	1982035.5746	False		False			
01	ses-029	7	images_fmri/ski_pole/ski_pole_05s.jpg	seen	6809	568	5	None	1456.0	20645.0	5.0	seen-between	2	5	29.82	2.98	False	False	29.818910609930757	32.79808198008686	[['b', 31.02149220998399]]	-1.0	unseen	True	False	1.201492209983989	2.9791713701561093	1.0	6.0	1982040.0416	False		False	7.0	0.0	262.0
01	ses-029	8	images_fmri/banana/banana_05s.jpg	unseen	353	30	5	None	64.0	952.0	5.0	unseen-between	1	5	34.29	2.98	True	False	34.28349734004587	37.266149626113474	[['b', 35.63366405502893]]	-1.0	unseen	False	False	1.3436640550289312	2.982652286067605	1.0	7.0	1982044.5062	False		False			
01	ses-029	9	images_fmri/toucan/toucan_05s.jpg	seen	7865	656	5	None	1691.0	23858.0	5.0	seen-within	2	5	38.76	2.98	True	False	38.75276072602719	41.73629705398344	[['x', 39.80863901600242]]	2.0	seen	False	True	1.0486390160024186	2.9835363279562443	1.0	8.0	1982048.9755	False		False	0.0	792.9176999998745	109.0
01	ses-029	10	images_fmri/stiletto/stiletto_05s.jpg	seen	7241	604	5	None	1555.0	21964.0	5.0	seen-within	2	5	43.23	2.98	False	True	43.234614623943344	46.20351827191189	[['b', 44.15577344899066]]	2.0	seen	False	True	0.925773448990661	2.9689036479685456	1.0	9.0	1982053.4573	False		False	0.0	231.1775999998208	22.0
01	ses-029	11	images_fmri/hula_hoop/hula_hoop_05s.jpg	seen	3893	325	5	None	811.0	11598.0	5.0	seen-within	2	5	47.7	2.98	True	False	47.69857111410238	50.68188874889165	[['x', 48.87972347694449]]	2.0	seen	False	True	1.1797234769444884	2.983317634789273	1.0	10.0	1982057.9213	False		False	0.0	40.23340000002645	9.0
01	ses-029	12	images_fmri/birdcage/birdcage_05s.jpg	seen	653	55	5	None	131.0	2013.0	5.0	seen-between-within	3	5	52.17	2.98	False	True	52.16929721110501	55.147330278065056	[['b', 54.07293440005742]]	2.0	seen	False	True	1.9029344000574184	2.978033066960052	1.0	11.0	1982062.3920	False		False	0.0	226.71340000000782	21.0
01	ses-029	13	images_fmri/gravel/gravel_05n.jpg	seen	3437	287	5	None	710.0	10187.0	5.0	seen-between-within	3	5	56.64	2.98	False	False	56.63192831701599	59.61996007710695	[['x', 57.57972974097356]]	2.0	seen	False	True	0.9397297409735614	2.988031760090962	1.0	12.0	1982066.8546	False		False	0.0	333.9883999999147	45.0
01	ses-029	14	images_fmri/toolbox/toolbox_05s.jpg	unseen	7829	653	5	None	1678.0	23682.0	5.0	unseen-between	1	5	61.11	2.98	True	True	61.098787792027	64.08101463294588	[['x', 62.71400066209026]]	-1.0	unseen	False	False	1.6040006620902574	2.982226840918884	1.0	13.0	1982071.3215	False		False			
01	ses-029	15	images_fmri/violin/violin_05s.jpg	unseen	8225	686	5	None	1765.0	24876.0	5.0	unseen-within	1	5	65.58	2.98	False	True	65.58459079591557	68.55140409292653	[['x', 69.2811482839752]]	-1.0	unseen	False	False	3.701148283975201	2.966813297010958	1.0	14.0	1982075.8073	False		False			
01	ses-029	16	images_fmri/breadbox/breadbox_05s.jpg	unseen	989	83	5	None	196.0	2970.0	5.0	unseen-within	1	5	70.05	2.98	True	True	70.04716415493749	73.03154658991843	[['x', 71.32945918804035]]	-1.0	unseen	False	False	1.2794591880403487	2.984382434980944	1.0	15.0	1982080.2699	False		False			
01	ses-029	17	images_fmri/microphone/microphone_05s.jpg	seen	4757	397	5	None	999.0	14223.0	5.0	seen-within	2	5	74.52	2.98	True	True	74.51913543604314	77.49821630306542	[['x', 77.37934383191168], ['y', 78.3211050638929]]	-1.0	unseen	True	False	2.859343831911687	2.979080867022276	1.0	16.0	1982084.7418	False		False	0.0	302.69610000005923	38.0
01	ses-029	18	images_fmri/lemon/lemon_05s.jpg	seen	4325	361	5	None	915.0	13084.0	5.0	seen-within	2	5	78.99	2.98	False	False	78.98071785294451	81.96349209104665	[['a', 80.86523109092377]]	1.0	seen	False	False	1.8752310909237764	2.982774238102138	1.0	17.0	1982089.2034	False		False	0.0	743.7479000000749	98.0
01	ses-029	19	images_fmri/pencil_sharpener/pencil_sharpener_05s.jpg	seen	5477	457	5	None	1144.0	16273.0	5.0	seen-within-between	3	5	83.46	2.98	False	True	83.46694137807935	86.43007901497185	[['x', 84.7154999980703]]	-1.0	unseen	True	False	1.255499998070306	2.963137636892497	1.0	18.0	1982093.6897	False		False	7.0	0.0	444.0
01	ses-029	20	images_fmri/jellyfish/jellyfish_05s.jpg	unseen	4013	335	5	None	846.0	12095.0	5.0	unseen-within	1	5	87.92999999999998	2.98	False	False	87.93386231805198	90.89934148499742	[['y', 90.11259456607513]]	-2.0	unseen	False	True	2.182594566075153	2.9654791669454426	1.0	19.0	1982098.1566	False		False			
01	ses-029	21	images_fmri/bread/bread_05s.jpg	seen	977	82	5	None	195.0	2948.0	5.0	seen-between	2	5	92.4	2.98	False	False	92.39988678996453	95.38085383502766	[['b', 94.77925319806673]]	-1.0	unseen	True	False	2.3792531980667206	2.980967045063153	1.0	20.0	1982102.6226	False		False	7.0	0.0	340.0
01	ses-029	22	images_fmri/anklet/anklet_05s.jpg	seen	113	10	5	None	24.0	336.0	5.0	seen-between-within	3	5	96.87	2.98	False	False	96.8680755479727	99.85056738811544	[['x', 97.82447728910483]]	2.0	seen	False	True	0.9544772891048297	2.9824918401427567	1.0	21.0	1982107.0908	False		False	0.0	93.86529999994673	21.0
01	ses-029	23	images_fmri/robot/robot_05s.jpg	unseen	6329	528	5	None	1319.0	18768.0	5.0	unseen-between	1	5	101.34	2.98	False	True	101.33460720302536	104.31378329289146	[['x', 103.53966179606505]]	-1.0	unseen	False	False	2.199661796065044	2.979176089866087	1.0	22.0	1982111.5573	False		False			
01	ses-029	24	images_fmri/lock/lock_05s.jpg	seen	4493	375	5	None	941.0	13434.0	5.0	seen-within-between	3	5	105.81	2.98	False	True	105.8164119780995	108.77950945310296	[['a', 107.48022669111378], ['b', 108.77335147396661]]	1.0	seen	False	False	1.6702266911137826	2.963097475003451	1.0	23.0	1982116.0391	False		False	7.0	0.0	412.0
01	ses-029	25	images_fmri/toilet/toilet_05s.jpg	unseen	7769	648	5	None	1671.0	23584.0	5.0	unseen-between	1	5	110.28	2.98	False	True	110.2806463309098	113.264835979091	[['x', 111.54857091093436]]	-1.0	unseen	False	False	1.2685709109343577	2.9841896481812	1.0	24.0	1982120.5034	False		False			
01	ses-029	26	images_fmri/jellyfish/jellyfish_05s.jpg	seen	4013	335	5	None	846.0	12095.0	5.0	seen-within	2	5	114.75	2.98	False	True	114.74693142808974	117.733481713105	[['b', 115.72649159701541]]	2.0	seen	False	True	0.9764915970154108	2.986550285015255	1.0	25.0	1982124.9696	False		False	0.0	26.812999999849126	6.0
01	ses-029	27	images_fmri/ball/ball_05s.jpg	seen	317	27	5	None	60.0	884.0	5.0	seen-within-between	3	5	119.22	2.98	False	False	119.2184841199778	122.19715512404218	[['a', 121.92410366702825]]	1.0	seen	False	False	2.704103667028249	2.978671004064381	1.0	26.0	1982129.4412	False		False	7.0	0.0	515.0
01	ses-029	28	images_fmri/lip_balm/lip_balm_05s.jpg	unseen	4445	371	5	None	935.0	13361.0	5.0	unseen-within	1	5	123.69	2.98	True	False	123.67889754800126	126.6677146370057	[['b', 127.05041568097658]]	-1.0	unseen	False	False	3.360415680976587	2.988817089004442	1.0	27.0	1982133.9016	False		False			
01	ses-029	29	images_fmri/train/train_05s.jpg	unseen	7925	661	5	None	1699.0	23972.0	5.0	unseen-between	1	5	128.16	2.98	False	True	128.16247413610108	131.1288002540823	[['x', 129.27230744506232]]	-1.0	unseen	False	False	1.1123074450623278	2.9663261179812253	1.0	28.0	1982138.3852	False		False			
01	ses-029	30	images_fmri/melon/melon_05s.jpg	seen	4745	396	5	None	995.0	14167.0	5.0	seen-between	2	5	132.63	2.98	False	True	132.63269727490842	135.6133492209483	[['x', 134.6815315040294]]	-1.0	unseen	True	False	2.0515315040294126	2.9806519460398704	1.0	29.0	1982142.8554	False		False	7.0	0.0	295.0
01	ses-029	31	images_fmri/scanner/scanner_05s.jpg	unseen	6485	541	5	None	1376.0	19546.0	5.0	unseen-between	1	5	137.1	2.98	True	True	137.10111329797655	140.07890539593063	[['x', 138.48043848504312]]	-1.0	unseen	False	False	1.380438485043129	2.9777920979540795	1.0	30.0	1982147.3238	False		False			
01	ses-029	32	images_fmri/chinchilla/chinchilla_05s.jpg	seen	1709	143	5	None	333.0	4813.0	5.0	seen-within	2	5	141.57	2.98	True	True	141.56707531306893	144.54525579605252	[['y', 143.13053180393763]]	1.0	seen	False	False	1.5605318039376357	2.978180482983589	1.0	31.0	1982151.7898	False		False	0.0	432.3242999999784	67.0
01	ses-029	33	images_fmri/tractor/tractor_05n.jpg	seen	7913	660	5	None	1696.0	23927.0	5.0	seen-between-within	3	5	146.04	2.98	False	False	146.03132816404104	149.01254110503942	[['b', 148.19825808797032]]	-1.0	unseen	True	False	2.1582580879703244	2.9812129409983754	1.0	32.0	1982156.2540	False		False	0.0	125.14870000001974	28.0
01	ses-029	34	images_fmri/camera2/camera2_05s.jpg	unseen	1301	109	5	None	249.0	3682.0	5.0	unseen-within	1	5	150.51	2.98	False	False	150.51581170689315	153.4835781790316	[['b', 153.74848410091363]]	-1.0	unseen	False	False	3.238484100913638	2.9677664721384645	1.0	33.0	1982160.7385	False		False			
01	ses-029	35	images_fmri/chin/chin_05s.jpg	seen	1697	142	5	None	331.0	4786.0	5.0	seen-within	2	5	154.98	2.98	False	False	154.97836136608385	157.9631360839121	[['x', 157.52299862005748]]	2.0	seen	False	True	2.542998620057489	2.984774717828259	1.0	34.0	1982165.2011	False		False	0.0	1514.9294999998529	220.0
01	ses-029	36	images_fmri/trap/trap_05s.jpg	unseen	7937	662	5	None	1703.0	24023.0	5.0	unseen-within	1	5	159.45	2.98	False	False	159.45010216510855	162.43276726501065							2.9826650999020785	1.0	35.0	1982169.6728	False		False			
01	ses-029	37	images_fmri/mitten/mitten_05s.jpg	seen	4841	404	5	None	1009.0	14382.0	5.0	seen-within	2	5	163.92	2.98	True	True	163.91540245199576	166.89566341391765							2.9802609619218856	1.0	36.0	1982174.1381	False		False	0.0	792.9291000000667	109.0
01	ses-029	38	images_fmri/screwdriver/screwdriver_05s.jpg	seen	6557	547	5	None	1392.0	19759.0	5.0	seen-between	2	5	168.39	2.98	True	True	168.3814000200946	171.36154175107367	[['b', 170.20188947906718]]	2.0	seen	False	True	1.8118894790671904	2.980141730979085	1.0	37.0	1982178.6041	False		False	7.0	0.0	305.0
01	ses-029	39	images_fmri/projector/projector_05s.jpg	seen	5969	498	5	None	1243.0	17678.0	5.0	seen-between-within	3	5	172.86	2.98	True	False	172.86472879094072	175.83108873199672	[['x', 173.9648101509083]]	2.0	seen	False	True	1.1048101509082926	2.966359941055998	1.0	38.0	1982183.0874	False		False	0.0	561.9676000000909	96.0
01	ses-029	40	images_fmri/prism/prism_05s.jpg	unseen	5957	497	5	None	1242.0	17666.0	5.0	unseen-between	1	5	177.32999999999996	2.98	False	True	177.33300545392558	180.3114012449514	[['x', 179.6171424461063]]	-1.0	unseen	False	False	2.287142446106344	2.9783957910258323	1.0	39.0	1982187.5557	False		False			
01	ses-029	41	images_fmri/kebab/kebab_05n.jpg	seen	4097	342	5	None	866.0	12384.0	5.0	seen-between	2	5	181.8	2.98	False	True	181.79844932211563	184.7778598431032	[['x', 184.54276853404008]]	-1.0	unseen	True	False	2.742768534040067	2.979410520987585	1.0	40.0	1982192.0212	False		False	7.0	0.0	448.0
01	ses-029	42	images_fmri/treadmill/treadmill_05s.jpg	seen	7973	665	5	None	1707.0	24076.0	5.0	seen-within-between	3	5	186.27	2.98	True	True	186.26148142199963	189.24474307894707	[['x', 187.47983393794857], ['x', 188.69031219300814]]	-1.0	unseen	True	False	1.2098339379485594	2.983261656947434	1.0	41.0	1982196.4842	False		False	7.0	0.0	366.0
01	ses-029	43	images_fmri/compass/compass_05s.jpg	unseen	1949	163	5	None	393.0	5654.0	5.0	unseen-between	1	5	190.74	2.98	True	False	190.729961568024	193.7158399319742							2.985878363950178	1.0	42.0	1982200.9527	False		False			
01	ses-029	44	images_fmri/kebab/kebab_05n.jpg	seen	4097	342	5	None	866.0	12384.0	5.0	seen-between-within	3	5	195.21	2.98	False	False	195.21412087092176	198.18305562390012							2.9689347529783845	1.0	43.0	1982205.4368	False		False	0.0	13.415599999949336	3.0
01	ses-029	45	images_fmri/ski_pole/ski_pole_05s.jpg	seen	6809	568	5	None	1456.0	20645.0	5.0	seen-between-within	3	5	199.68	2.98	True	False	199.67751559405588	202.6605815130752	[['y', 202.62949906196445]]	1.0	seen	False	False	2.949499061964445	2.983065919019282	1.0	44.0	1982209.9002	False		False	0.0	169.85859999991953	38.0
01	ses-029	46	images_fmri/noodle/noodle_05s.jpg	seen	5081	424	5	None	1062.0	15110.0	5.0	seen-within-between	3	5	204.15	2.98	False	False	204.1441145169083	207.13218677788973							2.9880722609814256	1.0	45.0	1982214.3668	False		False	7.0	0.0	386.0
01	ses-029	47	images_fmri/cardigan/cardigan_05s.jpg	unseen	1421	119	5	None	274.0	4022.0	5.0	unseen-between	1	5	208.62	2.98	True	False	208.61128508206457	211.59361292188987	[['b', 210.36059976997785]]	-1.0	unseen	False	False	1.7405997699778482	2.9823278398253024	1.0	46.0	1982218.8340	False		False			
01	ses-029	48	images_fmri/cinnamon/cinnamon_05s.jpg	seen	1769	148	5	None	349.0	5051.0	5.0	seen-between-within	3	5	213.09	2.98	True	False	213.09697130904533	216.06220323196607	[['x', 214.1546313620638]]	2.0	seen	False	True	1.0646313620638068	2.9652319229207933	1.0	47.0	1982223.3197	False		False	0.0	1765.2597000000533	276.0
01	ses-029	49	images_fmri/screwdriver/screwdriver_05s.jpg	seen	6557	547	5	None	1392.0	19759.0	5.0	seen-between-within	3	5	217.56	2.98	True	False	217.56406556	220.53016947000287	[['x', 218.40491149690934]]	2.0	seen	False	True	0.844911496909333	2.966103910002857	1.0	48.0	1982227.7868	False		False	0.0	49.18269999977201	11.0
01	ses-029	50	images_fmri/crystal1/crystal1_05s.jpg	seen	2261	189	5	None	455.0	6573.0	5.0	seen-within-between	3	5	222.03	2.98	True	False	222.0321631510742	225.01117378799245	[['x', 223.87985629891045]]	2.0	seen	False	True	1.8498562989104528	2.9790106369182467	1.0	49.0	1982232.2549	False		False	7.0	0.0	588.0
01	ses-029	51	images_fmri/lectern/lectern_05s.jpg	seen	4277	357	5	None	909.0	13002.0	5.0	seen-between-within	3	5	226.5	2.98	True	True	226.4954496100545	229.48174024000764	[['b', 230.15457378793508]]	2.0	seen	False	True	3.654573787935078	2.986290629953146	1.0	50.0	1982236.7182	False		False	0.0	472.55159999988973	76.0
01	ses-029	52	images_fmri/melon/melon_05s.jpg	seen	4745	396	5	None	995.0	14167.0	5.0	seen-between-within	3	5	230.97	2.98	True	False	230.9600386070088	233.9461743060965	[['x', 231.87858214392327]]	2.0	seen	False	True	0.9085821439232687	2.986135699087754	1.0	51.0	1982241.1827	False		False	0.0	98.32730000000447	22.0
01	ses-029	53	images_fmri/hatbox/hatbox_05s.jpg	seen	3665	306	5	None	759.0	10864.0	5.0	seen-between	2	5	235.44	2.98	True	True	235.4439022820443	238.41242252895609	[['y', 238.93927704403177]]	1.0	seen	False	False	3.4992770440317718	2.968520246911794	1.0	52.0	1982245.6666	False		False	7.0	0.0	561.0
01	ses-029	54	images_fmri/steamroller/steamroller_05n.jpg	seen	7217	602	5	None	1546.0	21843.0	5.0	seen-within-between	3	5	239.91	2.98	True	True	239.9095215769485	242.8949596399907	[['y', 242.1774220049847]]	1.0	seen	False	False	2.267422004984695	2.9854380630422384	1.0	53.0	1982250.1322	False		False	7.0	0.0	436.0
01	ses-029	55	images_fmri/oatmeal/oatmeal_05s.jpg	unseen	5117	427	5	None	1070.0	15212.0	5.0	unseen-between	1	5	244.38	2.98	True	True	244.38113062898628	247.3604344821069							2.979303853120655	1.0	54.0	1982254.6038	False		False			
01	ses-029	56	images_fmri/bread/bread_05s.jpg	seen	977	82	5	None	195.0	2948.0	5.0	seen-between-within	3	5	248.85	2.98	True	False	248.8442584760487	251.82580769108608	[['b', 250.38520060991868], ['y', 252.07665806007572]]	-1.0	unseen	True	False	1.5352006099186897	2.981549215037376	1.0	55.0	1982259.0670	False		False	0.0	156.4444000001531	35.0
01	ses-029	57	images_fmri/boy/boy_05s.jpg	seen	929	78	5	None	185.0	2803.0	5.0	seen-within	2	5	253.32	2.98	False	True	253.3092567468993	256.293696542969	[['b', 255.25324271596037]]	2.0	seen	False	True	1.9332427159603756	2.984439796069637	1.0	56.0	1982263.5320	False		False	0.0	1693.719899999909	260.0
01	ses-029	58	images_fmri/videocassette/videocassette_05n.jpg	seen	8201	684	5	None	1762.0	24837.0	5.0	seen-within-between	3	5	257.79	2.98	True	True	257.7959302139934	260.75894525507465	[['x', 260.5436276870314]]	-1.0	unseen	True	False	2.7536276870313827	2.963015041081235	1.0	57.0	1982268.0186	False		False	7.0	0.0	336.0
01	ses-029	59	images_fmri/violin/violin_05s.jpg	seen	8225	686	5	None	1765.0	24876.0	5.0	seen-within	2	5	262.26	2.98	False	False	262.2589558889158	265.2429700870998	[['x', 263.7207673978992]]	2.0	seen	False	True	1.4607673978991895	2.9840141981840134	1.0	58.0	1982272.4817	False		False	0.0	196.67439999990165	44.0
01	ses-029	60	images_fmri/bag/bag_05s.jpg	unseen	293	25	5	None	55.0	800.0	5.0	unseen-between	1	5	266.73	2.98	True	True	266.72899695206434	269.7142200220842							2.985223070019856	1.0	59.0	1982276.9517	False		False			
