subject	session	TrialNumber	image_path	condition	image_nr	category_nr	exemplar_nr	test_image_nr	things_category_nr	things_image_nr	things_exemplar_nr	subcondition	repetition	run	onset	duration	response_mapping_flip_h	response_mapping_flip_v	onset_flip	offset_flip	keypresses	response	response_txt	error	response_confidence	response_time	duration_flip	ran	order	session_trial_time	atypical	atypical_log	exclude_session	delay_days	delay_seconds	trials_since_lastrep
01	ses-029	1	images_fmri/road_sign/road_sign_05s.jpg	unseen	6317	527	5	None	1316.0	18727.0	5.0	unseen-within	1	6	3.0	2.98	True	True	3.0027816109359264	5.9671861820388585	[['x', 4.177715678000823]]	-1.0	unseen	False	False	1.1777156780008229	2.964404571102932	1.0	0.0	1982424.3142	False		False			
01	ses-029	2	images_fmri/anvil/anvil_05s.jpg	seen	173	15	5	None	29.0	396.0	5.0	seen-between	2	6	7.47	2.98	False	False	7.471019190037623	10.454047525068743	[['a', 11.424496432067826]]	1.0	seen	False	False	3.954496432067826	2.983028335031122	1.0	1.0	1982428.7825	False		False	7.0	0.0	417.0
01	ses-029	3	images_fmri/zucchini/zucchini_05s.jpg	seen	8633	720	5	None	1854.0	26099.0	5.0	seen-within-between	3	6	11.94	2.98	False	False	11.934271164936945	14.921704668086022	[['b', 12.90212328499183]]	-1.0	unseen	True	False	0.9621232849918312	2.9874335031490773	1.0	2.0	1982433.2457	False		False	7.0	0.0	426.0
01	ses-029	4	images_fmri/nail_polish/nail_polish_05s.jpg	unseen	5009	418	5	None	1050.0	14951.0	5.0	unseen-between	1	6	16.41	2.98	True	True	16.405177395092323	19.38826671196148	[['x', 20.274912051158026]]	-1.0	unseen	False	False	3.8649120511580257	2.9830893168691546	1.0	3.0	1982437.7166	False		False			
01	ses-029	5	images_fmri/bungee/bungee_05s.jpg	seen	1133	95	5	None	222.0	3321.0	5.0	seen-between-within	3	6	20.88	2.98	False	False	20.883943485096097	23.852417203132063	[['x', 21.86775418696925]]	2.0	seen	False	True	0.9877541869692514	2.968473718035966	1.0	4.0	1982442.1954	False		False	0.0	1850.034200000111	263.0
01	ses-029	6	images_fmri/coin/coin_05s.jpg	seen	1913	160	5	None	386.0	5555.0	5.0	seen-between	2	6	25.35	2.98	True	True	25.353188015986238	28.337741455994543	[['x', 26.35610854998231]]	-1.0	unseen	True	False	1.006108549982308	2.9845534400083125	1.0	5.0	1982446.6647	False		False	7.0	0.0	364.0
01	ses-029	7	images_fmri/fire/fire_05s.jpg	unseen	2933	245	5	None	591.0	8535.0	5.0	unseen-between	1	6	29.82	2.98	True	True	29.82036482496187	32.80113604408689	[['x', 31.123780881986022], ['a', 32.2502459299285]]	-1.0	unseen	False	False	1.3037808819860215	2.980771219125017	1.0	6.0	1982451.1318	False		False			
01	ses-029	8	images_fmri/boa/boa_05s.jpg	unseen	785	66	5	None	151.0	2304.0	5.0	unseen-between	1	6	34.29	2.98	False	True	34.28754150914028	37.26773731410504	[['x', 37.12441796204075]]	-1.0	unseen	False	False	2.834417962040753	2.980195804964751	1.0	7.0	1982455.5990	False		False			
01	ses-029	9	images_fmri/rattle/rattle_05s.jpg	unseen	6161	514	5	None	1288.0	18330.0	5.0	unseen-within	1	6	38.76	2.98	False	False	38.74958351999521	41.73387650609948	[['b', 40.68459838000126]]	-1.0	unseen	False	False	1.924598380001264	2.984292986104265	1.0	8.0	1982460.0611	False		False			
01	ses-029	10	images_fmri/penguin/penguin_05s.jpg	seen	5489	458	5	None	1146.0	16298.0	5.0	seen-within	2	6	43.23	2.98	True	False	43.2331769161392	46.20183329610154	[['y', 46.37824269500561]]	1.0	seen	False	False	3.1482426950056137	2.96865637996234	1.0	9.0	1982464.5446	False		False	0.0	1472.1128999998327	207.0
01	ses-029	11	images_fmri/wire/wire_05s.jpg	seen	8513	710	5	None	1829.0	25760.0	5.0	seen-between	2	6	47.7	2.98	True	False	47.6998902419582	50.68584831501357	[['y', 50.806458950042725]]	1.0	seen	False	False	3.1064589500427218	2.985958073055372	1.0	10.0	1982469.0114	False		False	7.0	0.0	346.0
01	ses-029	12	images_fmri/hedge/hedge_05s.jpg	unseen	3713	310	5	None	774.0	11075.0	5.0	unseen-between	1	6	52.17	2.98	True	True	52.16516296705231	55.15213472396135	[['x', 55.44219891214743]]	-1.0	unseen	False	False	3.272198912147431	2.9869717569090426	1.0	11.0	1982473.4766	False		False			
01	ses-029	13	images_fmri/speaker/speaker_05s.jpg	unseen	7049	588	5	None	1510.0	21354.0	5.0	unseen-between	1	6	56.64	2.98	False	False	56.63283024099656	59.6174351349473	[['b', 59.54312593606301]]	-1.0	unseen	False	False	2.903125936063006	2.984604893950745	1.0	12.0	1982477.9443	False		False			
01	ses-029	14	images_fmri/drain/drain_05s.jpg	unseen	2573	215	5	None	516.0	7488.0	5.0	unseen-between	1	6	61.11	2.98	True	True	61.09830717695877	64.08702383399941	[['x', 64.79414596804418]]	-1.0	unseen	False	False	3.684145968044177	2.9887166570406407	1.0	13.0	1982482.4098	False		False			
01	ses-029	15	images_fmri/basket/basket_05s.jpg	unseen	425	36	5	None	83.0	1234.0	5.0	unseen-between	1	6	65.58	2.98	True	False	65.58377058897167	68.54924808302894	[['b', 66.72235549101606]]	-1.0	unseen	False	False	1.1423554910160618	2.965477494057268	1.0	14.0	1982486.8952	False		False			
01	ses-029	16	images_fmri/lip_balm/lip_balm_05s.jpg	seen	4445	371	5	None	935.0	13361.0	5.0	seen-within	2	6	70.05	2.98	True	False	70.05198451015167	73.03379727900028	[['b', 71.70303961494938]]	-1.0	unseen	True	False	1.6530396149493782	2.981812768848613	1.0	15.0	1982491.3635	False		False	0.0	357.4618999999948	48.0
01	ses-029	17	images_fmri/overalls/overalls_05s.jpg	unseen	5201	434	5	None	1091.0	15525.0	5.0	unseen-within	1	6	74.52	2.98	True	False	74.51822060509585	77.50118855503388	[['b', 76.02821401995607]]	-1.0	unseen	False	False	1.5082140199560712	2.982967949938029	1.0	16.0	1982495.8297	False		False			
01	ses-029	18	images_fmri/praying_mantis/praying_mantis_05s.jpg	seen	5933	495	5	None	1239.0	17619.0	5.0	seen-between-within	3	6	78.99	2.98	False	False	78.98369814595208	81.968742022058	[['b', 82.22232271893881]]	-1.0	unseen	True	False	3.2323227189388177	2.9850438761059195	1.0	17.0	1982500.2952	False		False	0.0	1288.936500000069	188.0
01	ses-029	19	images_fmri/helmet/helmet_05s.jpg	unseen	3749	313	5	None	777.0	11128.0	5.0	unseen-between	1	6	83.46	2.98	True	False	83.44775286410004	86.43280739407055	[['b', 86.76377605297603]]	-1.0	unseen	False	False	3.3037760529760334	2.985054529970512	1.0	18.0	1982504.7592	False		False			
01	ses-029	20	images_fmri/wire/wire_05s.jpg	seen	8513	710	5	None	1829.0	25760.0	5.0	seen-between-within	3	6	87.92999999999998	2.98	False	True	87.93268501898274	90.9005829631351	[['x', 91.62645043502562]]	-1.0	unseen	True	False	3.696450435025639	2.967897944152355	1.0	19.0	1982509.2442	False		False	0.0	40.232800000114366	9.0
01	ses-029	21	images_fmri/lampshade/lampshade_05s.jpg	unseen	4229	353	5	None	894.0	12803.0	5.0	unseen-between	1	6	92.4	2.98	True	False	92.39853886305356	95.38391831098124	[['b', 95.62168584694155]]	-1.0	unseen	False	False	3.22168584694154	2.9853794479276985	1.0	20.0	1982513.7100	False		False			
01	ses-029	22	images_fmri/woman/woman_05s.jpg	unseen	8549	713	5	None	1833.0	25811.0	5.0	unseen-within	1	6	96.87	2.98	True	True	96.86594595201312	99.84919288009404	[['x', 99.92435315810144]]	-1.0	unseen	False	False	3.054353158101435	2.9832469280809164	1.0	21.0	1982518.1774	False		False			
01	ses-029	23	images_fmri/napkin_ring/napkin_ring_05s.jpg	unseen	5021	419	5	None	1052.0	14978.0	5.0	unseen-within	1	6	101.34	2.98	False	False	101.33258704212494	104.31555445306005	[['b', 103.2930311029777]]	-1.0	unseen	False	False	1.9530311029776897	2.982967410935089	1.0	22.0	1982522.6441	False		False			
01	ses-029	24	images_fmri/dolphin/dolphin_05s.jpg	seen	2501	209	5	None	503.0	7265.0	5.0	seen-within-between	3	6	105.81	2.98	True	True	105.79899076698348	108.7817148710601	[['x', 108.39607026707381]]	-1.0	unseen	True	False	2.586070267073808	2.982724104076624	1.0	23.0	1982527.1105	False		False	7.0	0.0	624.0
01	ses-029	25	images_fmri/rabbit/rabbit_05s.jpg	unseen	6053	505	5	None	1266.0	18041.0	5.0	unseen-between	1	6	110.28	2.98	False	True	110.28236165014096	113.24785629007964	[['x', 113.01925132493488]]	-1.0	unseen	False	False	2.739251324934884	2.965494639938697	1.0	24.0	1982531.5938	False		False			
01	ses-029	26	images_fmri/plastic_film/plastic_film_05s.jpg	seen	5681	474	5	None	1197.0	17016.0	5.0	seen-within	2	6	114.75	2.98	False	True	114.74943787697704	117.73459112900308	[['b', 117.881136468146]]	2.0	seen	False	True	3.1311364681459963	2.985153252026066	1.0	25.0	1982536.0609	False		False	0.0	513.9022999999579	83.0
01	ses-029	27	images_fmri/binoculars/binoculars_05s.jpg	seen	629	53	5	None	128.0	1963.0	5.0	seen-between	2	6	119.22	2.98	True	False	119.21477010892704	122.2029923221562							2.9882222132291645	1.0	26.0	1982540.5262	False		False	7.0	0.0	361.0
01	ses-029	28	images_fmri/bench/bench_05s.jpg	seen	593	50	5	None	121.0	1847.0	5.0	seen-between	2	6	123.69	2.98	True	False	123.68007916398346	126.66486897110008	[['y', 125.22292489209212]]	1.0	seen	False	False	1.532924892092126	2.984789807116613	1.0	27.0	1982544.9915	False		False	7.0	0.0	537.0
01	ses-029	29	images_fmri/meatball/meatball_05s.jpg	seen	4733	395	5	None	990.0	14100.0	5.0	seen-within	2	6	128.16	2.98	False	False	128.16697335708886	131.13297459995374	[['x', 129.74479022808373]]	2.0	seen	False	True	1.5847902280837332	2.966001242864877	1.0	28.0	1982549.4784	False		False	0.0	861.3106999997981	131.0
01	ses-029	30	images_fmri/anvil/anvil_05s.jpg	seen	173	15	5	None	29.0	396.0	5.0	seen-between-within	3	6	132.63	2.98	True	False	132.63377328799106	135.5983377341181							2.964564446127042	1.0	29.0	1982553.9452	False		False	0.0	125.16269999998622	28.0
01	ses-029	31	images_fmri/potato/potato_05n.jpg	seen	5897	492	5	None	1232.0	17522.0	5.0	seen-within	2	6	137.1	2.98	True	True	137.1012944369577	140.08207682613283							2.980782389175147	1.0	30.0	1982558.4128	False		False	0.0	1677.7420000000857	253.0
01	ses-029	32	images_fmri/trap/trap_05s.jpg	seen	7937	662	5	None	1703.0	24023.0	5.0	seen-within	2	6	141.57	2.98	False	False	141.5640793479979	144.55171461193822	[['b', 142.67570907715708]]	-1.0	unseen	True	False	1.105709077157087	2.9876352639403194	1.0	31.0	1982562.8755	False		False	0.0	393.20270000002347	56.0
01	ses-029	33	images_fmri/pastry/pastry_05s.jpg	unseen	5381	449	5	None	1125.0	16021.0	5.0	unseen-between	1	6	146.04	2.98	False	True	146.03476526401937	149.01652507996187	[['x', 147.15595352114178]]	-1.0	unseen	False	False	1.1159535211417904	2.981759815942496	1.0	32.0	1982567.3462	False		False			
01	ses-029	34	images_fmri/wallpaper/wallpaper_05s.jpg	unseen	8285	691	5	None	1778.0	25065.0	5.0	unseen-within	1	6	150.51	2.98	False	True	150.51629537902772	153.4804761139676	[['x', 152.07191543700173]]	-1.0	unseen	False	False	1.561915437001744	2.964180734939873	1.0	33.0	1982571.8278	False		False			
01	ses-029	35	images_fmri/woman/woman_05s.jpg	seen	8549	713	5	None	1833.0	25811.0	5.0	seen-within	2	6	154.98	2.98	False	False	154.98313318705186	157.96757581899874	[['x', 155.46560548595153]]	2.0	seen	False	True	0.4856054859515382	2.9844426319468766	1.0	34.0	1982576.2946	False		False	0.0	58.117199999978766	13.0
01	ses-029	36	images_fmri/camera2/camera2_05s.jpg	seen	1301	109	5	None	249.0	3682.0	5.0	seen-within	2	6	159.45	2.98	True	False	159.45121500012465	162.43471689498983							2.983501894865185	1.0	35.0	1982580.7627	False		False	0.0	420.0242000001017	62.0
01	ses-029	37	images_fmri/defibrillator/defibrillator_05s.jpg	seen	2369	198	5	None	478.0	6915.0	5.0	seen-within-between	3	6	163.92	2.98	True	False	163.9142324340064	166.89950891095214							2.985276476945728	1.0	36.0	1982585.2257	False		False	7.0	0.0	349.0
01	ses-029	38	images_fmri/cookie/cookie_05s.jpg	seen	2009	168	5	None	401.0	5767.0	5.0	seen-within-between	3	6	168.39	2.98	True	True	168.38433977100067	171.36437649303116							2.98003672203049	1.0	37.0	1982589.6958	False		False	7.0	0.0	519.0
01	ses-029	39	images_fmri/wallpaper/wallpaper_05s.jpg	seen	8285	691	5	None	1778.0	25065.0	5.0	seen-within	2	6	172.86	2.98	True	True	172.86254129605368	175.83029937394895	[['x', 175.90361027698964]]	-1.0	unseen	True	False	3.043610276989625	2.967758077895269	1.0	38.0	1982594.1740	False		False	0.0	22.346200000029057	5.0
01	ses-029	40	images_fmri/scone/scone_05s.jpg	unseen	6521	544	5	None	1381.0	19613.0	5.0	unseen-between	1	6	177.32999999999996	2.98	False	True	177.33051759307273	180.31520473002456	[['x', 178.77264142408967]]	-1.0	unseen	False	False	1.4426414240897143	2.984687136951834	1.0	39.0	1982598.6420	False		False			
01	ses-029	41	images_fmri/breadstick/breadstick_05s.jpg	seen	1001	84	5	None	197.0	2984.0	5.0	seen-between-within	3	6	181.8	2.98	False	True	181.8015819271095	184.7806193421129	[['y', 183.51740036113188]]	-2.0	unseen	True	True	1.7174003611318651	2.979037415003404	1.0	40.0	1982603.1130	False		False	0.0	1186.1391999998596	165.0
01	ses-029	42	images_fmri/hatbox/hatbox_05s.jpg	seen	3665	306	5	None	759.0	10864.0	5.0	seen-between-within	3	6	186.27	2.98	False	False	186.2661052851472	189.2468466819264							2.9807413967791945	1.0	41.0	1982607.5776	False		False	0.0	361.91099999984726	49.0
01	ses-029	43	images_fmri/pudding/pudding_05s.jpg	seen	5993	500	5	None	1247.0	17732.0	5.0	seen-between-within	3	6	190.74	2.98	False	False	190.7325893510133	193.71530040097423							2.982711049960926	1.0	42.0	1982612.0441	False		False	0.0	999.8593000001274	162.0
01	ses-029	44	images_fmri/binoculars/binoculars_05s.jpg	seen	629	53	5	None	128.0	1963.0	5.0	seen-between-within	3	6	195.21	2.98	False	True	195.21464234101583	198.17825245205316	[['x', 197.10441848402843]]	-1.0	unseen	True	False	1.8944184840284208	2.963610111037269	1.0	43.0	1982616.5261	False		False	0.0	75.99989999993704	17.0
01	ses-029	45	images_fmri/asparagus/asparagus_05n.jpg	seen	233	20	5	None	43.0	596.0	5.0	seen-between	2	6	199.68	2.98	False	True	199.68346971296705	202.6646182690747							2.981148556107655	1.0	44.0	1982620.9949	False		False	7.0	0.0	419.0
01	ses-029	46	images_fmri/punch1/punch1_05s.jpg	seen	6017	502	5	None	1255.0	17878.0	5.0	seen-between-within	3	6	204.15	2.98	False	True	204.1494026130531	207.13404602115045							2.9846434080973268	1.0	45.0	1982625.4609	False		False	0.0	2069.0694999999832	312.0
01	ses-029	47	images_fmri/warthog/warthog_05s.jpg	unseen	8333	695	5	None	1782.0	25120.0	5.0	unseen-between	1	6	208.62	2.98	True	False	208.61669037910175	211.5958309159614	[['b', 210.6144646089524]]	-1.0	unseen	False	False	1.9944646089523983	2.9791405368596315	1.0	46.0	1982629.9282	False		False			
01	ses-029	48	images_fmri/bench/bench_05s.jpg	seen	593	50	5	None	121.0	1847.0	5.0	seen-between-within	3	6	213.09	2.98	False	False	213.08148064510897	216.06510220398195							2.983621558872983	1.0	47.0	1982634.3929	False		False	0.0	89.40140000008978	20.0
01	ses-029	49	images_fmri/rattle/rattle_05s.jpg	seen	6161	514	5	None	1288.0	18330.0	5.0	seen-within	2	6	217.56	2.98	False	True	217.56340309302325	220.52913576294668							2.9657326699234545	1.0	48.0	1982638.8749	False		False	0.0	178.81379999988712	40.0
01	ses-029	50	images_fmri/lingerie/lingerie_05s.jpg	seen	4421	369	5	None	933.0	13324.0	5.0	seen-between-within	3	6	222.03	2.98	True	True	222.02956051705405	225.0167287599761	[['b', 222.97731679002754]]	2.0	seen	False	True	0.9473167900275428	2.9871682429220527	1.0	49.0	1982643.3410	False		False	0.0	950.6932000000961	151.0
01	ses-029	51	images_fmri/cabbage/cabbage_05s.jpg	seen	1205	101	5	None	233.0	3471.0	5.0	seen-between-within	3	6	226.5	2.98	False	True	226.50034837797284	229.4830177570693							2.9826693790964782	1.0	50.0	1982647.8118	False		False	0.0	977.5268000001088	157.0
01	ses-029	52	images_fmri/overalls/overalls_05s.jpg	seen	5201	434	5	None	1091.0	15525.0	5.0	seen-within	2	6	230.97	2.98	True	True	230.9659438249655	233.9454799999949	[['x', 232.5471671500709]]	-1.0	unseen	True	False	1.577167150070892	2.9795361750293523	1.0	51.0	1982652.2774	False		False	0.0	156.44770000013523	35.0
01	ses-029	53	images_fmri/road_sign/road_sign_05s.jpg	seen	6317	527	5	None	1316.0	18727.0	5.0	seen-within	2	6	235.44	2.98	False	False	235.43137952894904	238.41152369510385	[['x', 238.0004310850054]]	2.0	seen	False	True	2.560431085005405	2.980144166154787	1.0	52.0	1982656.7428	False		False	0.0	232.42859999998473	52.0
01	ses-029	54	images_fmri/sea_urchin/sea_urchin_05s.jpg	seen	6569	548	5	None	1394.0	19787.0	5.0	seen-within-between	3	6	239.91	2.98	False	False	239.91564376209865	242.87879319302735							2.963149430928752	1.0	53.0	1982661.2271	False		False	7.0	0.0	684.0
01	ses-029	55	images_fmri/coin/coin_05s.jpg	seen	1913	160	5	None	386.0	5555.0	5.0	seen-between-within	3	6	244.38	2.98	False	True	244.3788155659568	247.3623829111457	[['b', 245.4964127310086]]	2.0	seen	False	True	1.1164127310086087	2.98356734518893	1.0	54.0	1982665.6903	False		False	0.0	219.02559999981895	49.0
01	ses-029	56	images_fmri/fish/fish_05s.jpg	seen	2969	248	5	None	601.0	8688.0	5.0	seen-within-between	3	6	248.85	2.98	True	True	248.84670983697288	251.83212724514303							2.9854174081701785	1.0	55.0	1982670.1582	False		False	7.0	0.0	630.0
01	ses-029	57	images_fmri/asparagus/asparagus_05n.jpg	seen	233	20	5	None	43.0	596.0	5.0	seen-between-within	3	6	253.32	2.98	True	False	253.3143537750002	256.2996150581166							2.985261283116415	1.0	56.0	1982674.6258	False		False	0.0	53.6308999999892	12.0
01	ses-029	58	images_fmri/lettuce/lettuce_05n.jpg	unseen	4361	364	5	None	921.0	13162.0	5.0	unseen-between	1	6	257.79	2.98	True	True	257.777557278052	260.7657239269465							2.9881666488945484	1.0	57.0	1982679.0890	False		False			
01	ses-029	59	images_fmri/breadbox/breadbox_05s.jpg	seen	989	83	5	None	196.0	2970.0	5.0	seen-within	2	6	262.26	2.98	True	False	262.2638804439921	265.23051753710024							2.9666370931081474	1.0	58.0	1982683.5753	False		False	0.0	603.3053999999538	103.0
01	ses-029	60	images_fmri/napkin_ring/napkin_ring_05s.jpg	seen	5021	419	5	None	1052.0	14978.0	5.0	seen-within	2	6	266.73	2.98	False	True	266.7289887811057	269.7132964960765							2.9843077149707824	1.0	59.0	1982688.0405	False		False	0.0	165.3963999999687	37.0
