subject	session	TrialNumber	image_path	condition	image_nr	category_nr	exemplar_nr	test_image_nr	things_category_nr	things_image_nr	things_exemplar_nr	subcondition	repetition	run	onset	duration	response_mapping_flip_h	response_mapping_flip_v	onset_flip	offset_flip	keypresses	response	response_txt	error	response_confidence	response_time	duration_flip	ran	order	session_trial_time	atypical	atypical_log	exclude_session	delay_days	delay_seconds	trials_since_lastrep
01	ses-015	1	images_fmri/hanger/hanger_03s.jpg	unseen	3651	305	3	None	752.0	10760.0	3.0	unseen-between	1	4	3.0	2.98	False	True	3.0040769577026367	5.983654022216797	[['x', 5.16317081451416]]	-1.0	unseen	False	False	2.16317081451416	2.97957706451416	1.0	0.0	1629324017.4104	False		False			
01	ses-015	2	images_fmri/toaster/toaster_03s.jpg	unseen	7755	647	3	None	1667.0	23528.0	3.0	unseen-within	1	4	7.47	2.98	True	False	7.469689846038818	10.450181007385254	[['b', 9.179237842559814]]	-1.0	unseen	False	False	1.7092378425598147	2.9804911613464355	1.0	1.0	1629324021.8760	False		False			
01	ses-015	3	images_fmri/squeegee/squeegee_03s.jpg	seen	7119	594	3	None	1528.0	21596.0	3.0	seen-within-between	3	4	11.94	2.98	False	True	11.933712005615234	14.916453838348389	[['x', 14.048342943191528]]	-1.0	unseen	True	False	2.108342943191529	2.9827418327331543	1.0	2.0	1629324026.3400	False		False	7.0	0.0	363.0
01	ses-015	4	images_fmri/go-kart/go-kart_03s.jpg	seen	3279	274	3	None	683.0	9779.0	3.0	seen-within	2	4	16.41	2.98	True	True	16.40174388885498	19.3831160068512	[['x', 18.299904823303223]]	-1.0	unseen	True	False	1.8899048233032223	2.981372117996216	1.0	3.0	1629324030.8081	False		False	0.0	268.876699924469	28.0
01	ses-015	5	images_fmri/barrel/barrel_03s.jpg	seen	411	35	3	None	77.0	1138.0	3.0	seen-within-between	3	4	20.88	2.98	False	True	20.885421991348267	23.8504159450531	[['x', 22.128715991973877]]	-1.0	unseen	True	False	1.248715991973878	2.964993953704834	1.0	4.0	1629324035.2917	False		False	7.0	0.0	391.0
01	ses-015	6	images_fmri/thermostat/thermostat_03s.jpg	unseen	7659	639	3	None	1649.0	23284.0	3.0	unseen-within	1	4	25.35	2.98	False	False	25.35215997695923	28.33385396003723	[['b', 26.63720989227295]]	-1.0	unseen	False	False	1.2872098922729478	2.981693983078003	1.0	5.0	1629324039.7585	False		False			
01	ses-015	7	images_fmri/blueberry/blueberry_03s.jpg	seen	771	65	3	None	150.0	2290.0	3.0	seen-between	2	4	29.82	2.98	True	False	29.81904697418213	32.7993438243866	[['b', 31.01307201385498]]	-1.0	unseen	True	False	1.1930720138549802	2.980296850204468	1.0	6.0	1629324044.2254	False		False	7.0	0.0	228.0
01	ses-015	8	images_fmri/lasagna/lasagna_03s.jpg	unseen	4251	355	3	None	899.0	12867.0	3.0	unseen-within	1	4	34.29	2.98	False	False	34.2825939655304	37.26653003692627	[['b', 35.72901797294617]]	-1.0	unseen	False	False	1.4390179729461678	2.983936071395874	1.0	7.0	1629324048.6889	False		False			
01	ses-015	9	images_fmri/coconut/coconut_03s.jpg	unseen	1875	157	3	None	376.0	5415.0	3.0	unseen-between	1	4	38.76	2.98	False	True	38.75303292274475	41.73334002494812	[['x', 40.38719892501831]]	-1.0	unseen	False	False	1.6271989250183123	2.980307102203369	1.0	8.0	1629324053.1593	False		False			
01	ses-015	10	images_fmri/kettle/kettle_03n.jpg	seen	4107	343	3	None	869.0	12428.0	3.0	seen-between	2	4	43.23	2.98	True	False	43.234779834747314	46.19953894615173							2.964759111404419	1.0	9.0	1629324057.6411	False		False	7.0	0.0	462.0
01	ses-015	11	images_fmri/desk/desk_03s.jpg	unseen	2379	199	3	None	481.0	6953.0	3.0	unseen-within	1	4	47.7	2.98	False	False	47.70070600509644	50.68290901184082	[['b', 49.43384790420532]]	-1.0	unseen	False	False	1.7338479042053194	2.9822030067443848	1.0	10.0	1629324062.1070	False		False			
01	ses-015	12	images_fmri/blimp/blimp_03n.jpg	unseen	735	62	3	None	140.0	2131.0	3.0	unseen-within	1	4	52.17	2.98	True	True	52.169617891311646	55.14916682243347	[['x', 54.83274698257446]]	-1.0	unseen	False	False	2.662746982574461	2.979548931121826	1.0	11.0	1629324066.5759	False		False			
01	ses-015	13	images_fmri/game/game_03s.jpg	seen	3147	263	3	None	655.0	9409.0	3.0	seen-within-between	3	4	56.64	2.98	False	False	56.63182282447815	59.61537981033325	[['b', 57.91436195373535]]	-1.0	unseen	True	False	1.274361953735351	2.9835569858551025	1.0	12.0	1629324071.0381	False		False	7.0	0.0	265.0
01	ses-015	14	images_fmri/polaroid/polaroid_03s.jpg	seen	5787	483	3	None	1213.0	17243.0	3.0	seen-within-within-between	4	4	61.11	2.98	False	False	61.1027729511261	64.08251094818115	[['b', 62.90579080581665]]	-1.0	unseen	True	False	1.795790805816651	2.9797379970550537	1.0	13.0	1629324075.5091	True	_subcondition:seen-within-within-between_repetition:4	False	7.0	0.0	516.0
01	ses-015	15	images_fmri/lasagna/lasagna_03s.jpg	seen	4251	355	3	None	899.0	12867.0	3.0	seen-within	2	4	65.58	2.98	False	False	65.58468103408813	68.54889798164368	[['x', 67.33199191093445]]	2.0	seen	False	True	1.75199191093445	2.964216947555542	1.0	14.0	1629324079.9910	False		False	0.0	31.30209994316101	7.0
01	ses-015	16	images_fmri/banana_split/banana_split_03s.jpg	unseen	363	31	3	None	66.0	980.0	3.0	unseen-between	1	4	70.05	2.98	False	True	70.05038499832153	73.03229284286499	[['x', 72.45588684082031]]	-1.0	unseen	False	False	2.405886840820316	2.981907844543457	1.0	15.0	1629324084.4567	False		False			
01	ses-015	17	images_fmri/coat_rack/coat_rack_03s.jpg	seen	1851	155	3	None	371.0	5350.0	3.0	seen-within-between	3	4	74.52	2.98	False	True	74.51782298088074	77.50186395645142	[['x', 78.278883934021]]	-1.0	unseen	True	False	3.758883934021	2.9840409755706787	1.0	16.0	1629324088.9241	False		False	7.0	0.0	442.0
01	ses-015	18	images_fmri/typewriter/typewriter_03s.jpg	seen	8091	675	3	None	1742.0	24549.0	3.0	seen-within	2	4	78.99	2.98	True	True	78.98203992843628	81.96484899520874	[['x', 80.4017379283905]]	-1.0	unseen	True	False	1.411737928390508	2.982809066772461	1.0	17.0	1629324093.3884	False		False	0.0	434.26929998397827	65.0
01	ses-015	19	images_fmri/spider/spider_03s.jpg	seen	7059	589	3	None	1514.0	21407.0	3.0	seen-between	2	4	83.46	2.98	True	True	83.45095586776733	86.43148994445801	[['x', 85.02687788009644]]	-1.0	unseen	True	False	1.5668778800964418	2.980534076690674	1.0	18.0	1629324097.8573	False		False	7.0	0.0	314.0
01	ses-015	20	images_fmri/wand/wand_03s.jpg	seen	8319	694	3	None	1781.0	25106.0	3.0	seen-between-within	3	4	87.92999999999998	2.98	False	True	87.93306088447571	90.8982880115509							2.9652271270751958	1.0	19.0	1629324102.3394	False		False	0.0	353.8226001262665	47.0
01	ses-015	21	images_fmri/aloe/aloe_03n.jpg	unseen	63	6	3	None	15.0	207.0	3.0	unseen-within	1	4	92.4	2.98	True	True	92.40210795402528	95.38115191459656	[['a', 92.55491185188293], ['x', 94.78682088851929]]	-2.0	unseen	False	True	0.1549118518829288	2.979043960571289	1.0	20.0	1629324106.8084	False		False			
01	ses-015	22	images_fmri/coleslaw/coleslaw_03s.jpg	seen	1923	161	3	None	387.0	5568.0	3.0	seen-between-within	3	4	96.87	2.98	False	True	96.863214969635	99.84850096702576	[['x', 98.59553480148315], ['a', 98.66572093963623], ['x', 99.93083095550537]]	-1.0	unseen	True	False	1.7255348014831495	2.985285997390747	1.0	21.0	1629324111.2695	False		False	0.0	1069.4558000564575	165.0
01	ses-015	23	images_fmri/llama/llama_03s.jpg	seen	4467	373	3	None	939.0	13407.0	3.0	seen-between-within	3	4	101.34	2.98	True	False	101.3304159641266	104.31452703475952	[['x', 102.49758887290955]]	2.0	seen	False	True	1.1575888729095425	2.9841110706329346	1.0	22.0	1629324115.7367	False		False	0.0	268.87220001220703	28.0
01	ses-015	24	images_fmri/wheelchair/wheelchair_03n.jpg	seen	8439	704	3	None	1809.0	25478.0	3.0	seen-between	2	4	105.81	2.98	True	True	105.816871881485	108.78127098083496	[['x', 107.27829885482788]]	-1.0	unseen	True	False	1.4682988548278786	2.964399099349976	1.0	23.0	1629324120.2232	False		False	7.0	0.0	231.0
01	ses-015	25	images_fmri/retainer/retainer_03s.jpg	seen	6219	519	3	None	1304.0	18564.0	3.0	seen-between-within	3	4	110.28	2.98	True	False	110.28055000305176	113.2651138305664	[['x', 111.62683701515198]]	2.0	seen	False	True	1.3468370151519764	2.9845638275146484	1.0	24.0	1629324124.6869	False		False	0.0	872.4643998146057	142.0
01	ses-015	26	images_fmri/limousine/limousine_03s.jpg	seen	4407	368	3	None	932.0	13307.0	3.0	seen-between	2	4	114.75	2.98	True	False	114.75167894363403	117.73119783401488	[['b', 116.03365182876587]]	-1.0	unseen	True	False	1.2836518287658691	2.97951889038086	1.0	25.0	1629324129.1580	False		False	7.0	0.0	488.0
01	ses-015	27	images_fmri/tent/tent_03s.jpg	seen	7623	636	3	None	1644.0	23209.0	3.0	seen-between	2	4	119.22	2.98	False	False	119.21813297271729	122.19711303710938	[['b', 120.3035478591919]]	-1.0	unseen	True	False	1.0835478591918957	2.97898006439209	1.0	26.0	1629324133.6244	False		False	7.0	0.0	261.0
01	ses-015	28	images_fmri/smoke_alarm/smoke_alarm_03s.jpg	seen	6867	573	3	None	1474.0	20879.0	3.0	seen-between	2	4	123.69	2.98	True	False	123.68124985694884	126.66360092163086	[['b', 125.86935997009277]]	-1.0	unseen	True	False	2.179359970092776	2.982351064682007	1.0	27.0	1629324138.0876	False		False	7.0	0.0	524.0
01	ses-015	29	images_fmri/missile/missile_03s.jpg	unseen	4815	402	3	None	1007.0	14346.0	3.0	unseen-between	1	4	128.16	2.98	False	False	128.1634500026703	131.1349859237671	[['b', 131.46332502365112]]	-1.0	unseen	False	False	3.3033250236511265	2.9715359210968018	1.0	28.0	1629324142.5698	False		False			
01	ses-015	30	images_fmri/handcuff/handcuff_03s.jpg	seen	3639	304	3	None	747.0	10697.0	3.0	seen-within	2	4	132.63	2.98	False	False	132.63058996200562	135.6144688129425	[['b', 135.4688048362732]]	-1.0	unseen	True	False	2.838804836273198	2.9838788509368896	1.0	29.0	1629324147.0369	False		False	0.0	850.1089000701904	137.0
01	ses-015	31	images_fmri/alligator/alligator_03n.jpg	seen	51	5	3	None	13.0	180.0	3.0	seen-within	2	4	137.1	2.98	True	True	137.09749603271484	140.0825400352478							2.985044002532959	1.0	30.0	1629324151.5038	False		False	0.0	716.0176999568939	107.0
01	ses-015	32	images_fmri/toaster/toaster_03s.jpg	seen	7755	647	3	None	1667.0	23528.0	3.0	seen-within	2	4	141.57	2.98	True	True	141.56399583816528	144.54717183113098	[['b', 144.21180081367493]]	2.0	seen	False	True	2.6418008136749336	2.9831759929656982	1.0	31.0	1629324155.9703	False		False	0.0	134.094300031662	30.0
01	ses-015	33	images_fmri/aloe/aloe_03n.jpg	seen	63	6	3	None	15.0	207.0	3.0	seen-within	2	4	146.04	2.98	True	False	146.0303440093994	149.01200485229492	[['b', 148.52642393112183]]	-1.0	unseen	True	False	2.486423931121834	2.981660842895508	1.0	32.0	1629324160.4367	False		False	0.0	53.628300189971924	12.0
01	ses-015	34	images_fmri/smoke_alarm/smoke_alarm_03s.jpg	seen	6867	573	3	None	1474.0	20879.0	3.0	seen-between-within	3	4	150.51	2.98	False	False	150.51365280151367	153.4798560142517	[['x', 153.36227798461914]]	2.0	seen	False	True	2.8522779846191497	2.966203212738037	1.0	33.0	1629324164.9200	False		False	0.0	26.83240008354187	6.0
01	ses-015	35	images_fmri/wig/wig_03s.jpg	unseen	8475	707	3	None	1817.0	25582.0	3.0	unseen-between	1	4	154.98	2.98	False	True	154.98037695884705	157.96373891830444	[['b', 157.88954281806946]]	2.0	seen	True	True	2.909542818069468	2.983361959457397	1.0	34.0	1629324169.3867	False		False			
01	ses-015	36	images_fmri/spoon/spoon_03s.jpg	seen	7083	591	3	None	1520.0	21487.0	3.0	seen-within	2	4	159.45	2.98	True	False	159.44665694236755	162.43175983428955							2.985102891921997	1.0	35.0	1629324173.8530	False		False	0.0	680.2506999969482	99.0
01	ses-015	37	images_fmri/net/net_03s.jpg	unseen	5067	423	3	None	1058.0	15056.0	3.0	unseen-between	1	4	163.92	2.98	True	True	163.91679787635803	166.89713597297668	[['x', 166.5237100124359]]	-1.0	unseen	False	False	2.6037100124359256	2.9803380966186523	1.0	36.0	1629324178.3231	False		False			
01	ses-015	38	images_fmri/bobsled/bobsled_03s.jpg	unseen	819	69	3	None	156.0	2382.0	3.0	unseen-within	1	4	168.39	2.98	False	True	168.37936186790466	171.36276698112488	[['b', 172.34129285812378]]	2.0	seen	True	True	3.951292858123793	2.983405113220215	1.0	37.0	1629324182.7857	False		False			
01	ses-015	39	images_fmri/croissant/croissant_03s.jpg	seen	2199	184	3	None	443.0	6408.0	3.0	seen-between-within	3	4	172.86	2.98	True	True	172.86373686790466	175.82827186584473	[['x', 175.4770429134369]]	-1.0	unseen	True	False	2.617042913436876	2.9645349979400635	1.0	38.0	1629324187.2700	False		False	0.0	702.600800037384	104.0
01	ses-015	40	images_fmri/buggy/buggy_03s.jpg	seen	1083	91	3	None	214.0	3212.0	3.0	seen-within-between	3	4	177.32999999999996	2.98	False	False	177.3292260169983	180.31274580955505	[['b', 178.7052459716797]]	-1.0	unseen	True	False	1.3752459716797318	2.9835197925567627	1.0	39.0	1629324191.7355	False		False	7.0	0.0	350.0
01	ses-015	41	images_fmri/rocking_chair/rocking_chair_03s.jpg	seen	6339	529	3	None	1322.0	18810.0	3.0	seen-between-within	3	4	181.8	2.98	True	True	181.79968881607056	184.7781958580017	[['x', 183.02910780906677]]	-1.0	unseen	True	False	1.229107809066761	2.9785070419311523	1.0	40.0	1629324196.2060	False		False	0.0	478.97580003738403	75.0
01	ses-015	42	images_fmri/cow/cow_03s.jpg	seen	2103	176	3	None	427.0	6152.0	3.0	seen-between	2	4	186.27	2.98	True	True	186.26203083992004	189.24588990211487	[['x', 187.44407200813293]]	-1.0	unseen	True	False	1.1740720081329243	2.983859062194824	1.0	41.0	1629324200.6683	False		False	7.0	0.0	245.0
01	ses-015	43	images_fmri/wallet/wallet_03s.jpg	unseen	8271	690	3	None	1777.0	25049.0	3.0	unseen-within	1	4	190.74	2.98	False	False	190.73321080207825	193.71188497543332	[['b', 192.52556490898132]]	-1.0	unseen	False	False	1.785564908981314	2.9786741733551025	1.0	42.0	1629324205.1395	False		False			
01	ses-015	44	images_fmri/taillight/taillight_03s.jpg	unseen	7539	629	3	None	1618.0	22841.0	3.0	unseen-between	1	4	195.21	2.98	True	True	195.21583080291748	198.17839694023127	[['x', 197.6231620311737]]	-1.0	unseen	False	False	2.413162031173698	2.9625661373138428	1.0	43.0	1629324209.6221	False		False			
01	ses-015	45	images_fmri/cow/cow_03s.jpg	seen	2103	176	3	None	427.0	6152.0	3.0	seen-between-within	3	4	199.68	2.98	True	True	199.678514957428	202.6616678237915	[['x', 202.12490797042847], ['b', 202.86770486831665]]	-1.0	unseen	True	False	2.44490797042846	2.9831528663635254	1.0	44.0	1629324214.0848	False		False	0.0	13.416500091552734	3.0
01	ses-015	46	images_fmri/spider/spider_03s.jpg	seen	7059	589	3	None	1514.0	21407.0	3.0	seen-between-within	3	4	204.15	2.98	True	True	204.14509892463684	207.13256692886355	[['b', 205.14611792564392]]	2.0	seen	False	True	0.9961179256439152	2.987468004226685	1.0	45.0	1629324218.5514	False		False	0.0	120.69409990310669	27.0
01	ses-015	47	images_fmri/pumpkin/pumpkin_03s.jpg	seen	6003	501	3	None	1254.0	17855.0	3.0	seen-within-between	3	4	208.62	2.98	False	False	208.6146349906921	211.5954849720001	[['b', 210.02844882011414]]	-1.0	unseen	True	False	1.4084488201141312	2.9808499813079834	1.0	46.0	1629324223.0209	False		False	7.0	0.0	422.0
01	ses-015	48	images_fmri/koala/koala_03s.jpg	unseen	4179	349	3	None	885.0	12668.0	3.0	unseen-between	1	4	213.09	2.98	True	False	213.08216786384585	216.0656988620758							2.9835309982299805	1.0	47.0	1629324227.4885	False		False			
01	ses-015	49	images_fmri/blimp/blimp_03n.jpg	seen	735	62	3	None	140.0	2131.0	3.0	seen-within	2	4	217.56	2.98	False	True	217.56604599952695	220.5305109024048	[['a', 220.54993391036987]]	1.0	seen	False	False	2.9899339103698708	2.964464902877808	1.0	48.0	1629324231.9724	False		False	0.0	165.39649987220764	37.0
01	ses-015	50	images_fmri/tuxedo/tuxedo_03s.jpg	unseen	8067	673	3	None	1739.0	24508.0	3.0	unseen-within	1	4	222.03	2.98	False	False	222.02853202819824	225.011736869812	[['b', 223.35911989212036]]	-1.0	unseen	False	False	1.3291198921203602	2.983204841613769	1.0	49.0	1629324236.4348	False		False			
01	ses-015	51	images_fmri/needle/needle_03s.jpg	seen	5043	421	3	None	1056.0	15031.0	3.0	seen-between	2	4	226.5	2.98	False	False	226.49849581718445	229.48432397842407							2.985828161239624	1.0	50.0	1629324240.9048	False		False	7.0	0.0	302.0
01	ses-015	52	images_fmri/bolt/bolt_03s.jpg	seen	831	70	3	None	160.0	2441.0	3.0	seen-within-between	3	4	230.97	2.98	False	False	230.96493697166443	233.94448494911197	[['b', 232.82333493232727]]	-1.0	unseen	True	False	1.853334932327272	2.9795479774475098	1.0	51.0	1629324245.3712	False		False	7.0	0.0	277.0
01	ses-015	53	images_fmri/mirror/mirror_03s.jpg	seen	4803	401	3	None	1006.0	14334.0	3.0	seen-within-between	3	4	235.44	2.98	False	True	235.4467158317566	238.4142780303955	[['x', 239.24576902389526]]	-1.0	unseen	True	False	3.805769023895266	2.967562198638916	1.0	52.0	1629324249.8530	False		False	7.0	0.0	309.0
01	ses-015	54	images_fmri/powder/powder_03s.jpg	seen	5919	494	3	None	1237.0	17592.0	3.0	seen-between	2	4	239.91	2.98	True	False	239.9116609096527	242.8762459754944	[['b', 241.2651228904724]]	-1.0	unseen	True	False	1.3551228904724155	2.964585065841675	1.0	53.0	1629324254.3180	False		False	7.0	0.0	384.0
01	ses-015	55	images_fmri/wallet/wallet_03s.jpg	seen	8271	690	3	None	1777.0	25049.0	3.0	seen-within	2	4	244.38	2.98	False	False	244.38144183158877	247.36107087135315							2.9796290397644043	1.0	54.0	1629324258.7878	False		False	0.0	53.64830017089844	12.0
01	ses-015	56	images_fmri/blueberry/blueberry_03s.jpg	seen	771	65	3	None	150.0	2290.0	3.0	seen-between-within	3	4	248.85	2.98	True	True	248.84695100784305	251.82704496383667	[['b', 250.25680899620056]]	2.0	seen	False	True	1.4068089962005672	2.9800939559936523	1.0	55.0	1629324263.2533	False		False	0.0	219.02789998054504	49.0
01	ses-015	57	images_fmri/sonogram/sonogram_03s.jpg	unseen	6987	583	3	None	1497.0	21180.0	3.0	unseen-between	1	4	253.32	2.98	True	False	253.31093788146973	256.29438185691833							2.9834439754486084	1.0	56.0	1629324267.7172	False		False			
01	ses-015	58	images_fmri/aluminum_foil/aluminum_foil_03s.jpg	seen	87	8	3	None	18.0	252.0	3.0	seen-within-between	3	4	257.79	2.98	False	True	257.797171831131	260.76123785972595	[['x', 259.2731578350067]]	-1.0	unseen	True	False	1.4831578350066934	2.9640660285949707	1.0	57.0	1629324272.2035	False		False	7.0	0.0	425.0
01	ses-015	59	images_fmri/moth/moth_03n.jpg	unseen	4911	410	3	None	1024.0	14587.0	3.0	unseen-within	1	4	262.26	2.98	True	False	262.26215386390686	265.24591588974							2.98376202583313	1.0	58.0	1629324276.6685	False		False			
01	ses-015	60	images_fmri/earwig/earwig_03s.jpg	unseen	2679	224	3	None	542.0	7866.0	3.0	unseen-between	1	4	266.73	2.98	True	True	266.73045086860657	269.7149729728699							2.9845221042633057	1.0	59.0	1629324281.1368	False		False			
