subject	session	TrialNumber	image_path	condition	image_nr	category_nr	exemplar_nr	test_image_nr	things_category_nr	things_image_nr	things_exemplar_nr	subcondition	repetition	run	onset	duration	response_mapping_flip_h	response_mapping_flip_v	onset_flip	offset_flip	keypresses	response	response_txt	error	response_confidence	response_time	duration_flip	ran	order	session_trial_time	atypical	atypical_log	exclude_session	delay_days	delay_seconds	trials_since_lastrep
01	ses-010	1	images_fmri/birdcage/birdcage_04s.jpg	unseen	652	55	4	None	131.0	2012.0	4.0	unseen-between	1	4	3.0	2.98	True	False	2.983957052230835	5.962730169296265	[['b', 5.282465934753418]]	-1.0	unseen	False	False	2.282465934753418	2.9787731170654297	1.0	0.0	1624030350.2457	False		False			
01	ses-010	2	images_fmri/ball/ball_04s.jpg	seen	316	27	4	None	60.0	883.0	4.0	seen-within	2	4	7.47	2.98	True	False	7.465867042541504	10.433287143707275	[['x', 8.617664098739624]]	2.0	seen	False	True	1.1476640987396245	2.9674201011657715	1.0	1.0	1624030354.7276	False		False	0.0	832.9423999786377	114.0
01	ses-010	3	images_fmri/cup/cup_04s.jpg	seen	2296	192	4	None	461.0	6676.0	4.0	seen-between-within	3	4	11.94	2.98	False	True	11.93262219429016	14.913886070251465	[['a', 13.87045693397522]]	1.0	seen	False	False	1.93045693397522	2.981263875961304	1.0	2.0	1624030359.1944	False		False	0.0	399.5415999889374	39.0
01	ses-010	4	images_fmri/sea_urchin/sea_urchin_04s.jpg	unseen	6568	548	4	None	1394.0	19786.0	4.0	unseen-within	1	4	16.41	2.98	True	True	16.40192198753357	19.37943005561829	[['x', 18.666691064834595]]	-1.0	unseen	False	False	2.2566910648345946	2.977508068084717	1.0	3.0	1624030363.6637	False		False			
01	ses-010	5	images_fmri/shoe/shoe_04s.jpg	seen	6688	558	4	None	1424.0	20195.0	4.0	seen-between	2	4	20.88	2.98	True	True	20.866546154022217	23.845571041107178	[['x', 22.489826917648315]]	-1.0	unseen	True	False	1.6098269176483164	2.979024887084961	1.0	4.0	1624030368.1283	False		False	9.0	0.0	511.0
01	ses-010	6	images_fmri/tractor/tractor_04s.jpg	unseen	7912	660	4	None	1696.0	23926.0	4.0	unseen-between	1	4	25.35	2.98	False	True	25.33422899246216	28.31544613838196	[['x', 27.642390966415405]]	-1.0	unseen	False	False	2.292390966415404	2.9812171459198	1.0	5.0	1624030372.5960	False		False			
01	ses-010	7	images_fmri/stove1/stove1_04s.jpg	unseen	7264	606	4	None	1564.0	22086.0	4.0	unseen-within	1	4	29.82	2.98	True	False	29.812121152877808	32.78203296661377	[['b', 31.91238498687744]]	-1.0	unseen	False	False	2.092384986877441	2.969911813735962	1.0	6.0	1624030377.0739	False		False			
01	ses-010	8	images_fmri/grenade/grenade_04s.jpg	seen	3460	289	4	None	714.0	10241.0	4.0	seen-between-within	3	4	34.29	2.98	False	True	34.281535148620605	37.26295804977417	[['b', 35.363160133361816]]	2.0	seen	False	True	1.0731601333618173	2.9814229011535645	1.0	7.0	1624030381.5433	False		False	0.0	891.0447998046875	127.0
01	ses-010	9	images_fmri/tongue/tongue_04s.jpg	seen	7816	652	4	None	1676.0	23657.0	4.0	seen-within-between	3	4	38.76	2.98	True	False	38.750972032547	41.7285749912262	[['y', 40.56068992614746]]	1.0	seen	False	False	1.800689926147463	2.977602958679199	1.0	8.0	1624030386.0127	False		False	9.0	0.0	473.0
01	ses-010	10	images_fmri/crayon/crayon_04s.jpg	unseen	2164	181	4	None	436.0	6301.0	4.0	unseen-within	1	4	43.23	2.98	False	True	43.21557712554932	46.19581604003906	[['x', 44.565155029296875]]	-1.0	unseen	False	False	1.335155029296878	2.980238914489746	1.0	9.0	1624030390.4773	False		False			
01	ses-010	11	images_fmri/bottle/bottle_04s.jpg	seen	868	73	4	None	171.0	2599.0	4.0	seen-between-within	3	4	47.7	2.98	False	True	47.67821502685547	50.666064977645874	[['b', 48.85122013092041]]	2.0	seen	False	True	1.151220130920407	2.9878499507904053	1.0	10.0	1624030394.9400	False		False	0.0	497.8652000427246	61.0
01	ses-010	12	images_fmri/plate/plate_04s.jpg	unseen	5692	475	4	None	1198.0	17028.0	4.0	unseen-within	1	4	52.17	2.98	True	False	52.1646101474762	55.14655113220215	[['b', 54.08522391319275]]	-1.0	unseen	False	False	1.9152239131927475	2.981940984725952	1.0	11.0	1624030399.4264	False		False			
01	ses-010	13	images_fmri/necklace/necklace_04n.jpg	unseen	5032	420	4	None	1055.0	15017.0	4.0	unseen-between	1	4	56.64	2.98	False	False	56.63223600387573	59.61150217056274	[['b', 59.149205923080444]]	-1.0	unseen	False	False	2.509205923080444	2.979266166687012	1.0	12.0	1624030403.8940	False		False			
01	ses-010	14	images_fmri/balloon/balloon_04s.jpg	seen	328	28	4	None	61.0	899.0	4.0	seen-within	2	4	61.11	2.98	True	False	61.09814214706421	64.07781219482422	[['b', 62.536097049713135]]	-1.0	unseen	True	False	1.4260970497131351	2.9796700477600098	1.0	13.0	1624030408.3599	False		False	0.0	658.5975000858307	75.0
01	ses-010	15	images_fmri/anklet/anklet_04s.jpg	unseen	112	10	4	None	24.0	335.0	4.0	unseen-between	1	4	65.58	2.98	False	True	65.56684398651123	68.5448579788208	[['x', 67.75682210922241]]	-1.0	unseen	False	False	2.176822109222414	2.9780139923095703	1.0	14.0	1624030412.8286	False		False			
01	ses-010	16	images_fmri/banana_split/banana_split_04s.jpg	seen	364	31	4	None	66.0	981.0	4.0	seen-between	2	4	70.05	2.98	True	False	70.03168106079102	73.01101207733154	[['y', 72.37144804000854]]	1.0	seen	False	False	2.321448040008548	2.979331016540528	1.0	15.0	1624030417.2934	False		False	9.0	0.0	371.0
01	ses-010	17	images_fmri/gravel/gravel_04n.jpg	seen	3436	287	4	None	710.0	10186.0	4.0	seen-within	2	4	74.52	2.98	False	True	74.51230001449585	77.49503898620605	[['b', 76.04822897911072]]	2.0	seen	False	True	1.5282289791107218	2.982738971710205	1.0	16.0	1624030421.7740	False		False	0.0	301.20549988746643	17.0
01	ses-010	18	images_fmri/squirrel/squirrel_04s.jpg	seen	7132	595	4	None	1530.0	21622.0	4.0	seen-within-between	3	4	78.99	2.98	True	True	78.98359298706055	81.96170806884766	[['x', 80.49098110198975]]	-1.0	unseen	True	False	1.5009811019897512	2.9781150817871094	1.0	17.0	1624030426.2453	False		False	9.0	0.0	347.0
01	ses-010	19	images_fmri/sea_urchin/sea_urchin_04s.jpg	seen	6568	548	4	None	1394.0	19786.0	4.0	seen-within	2	4	83.46	2.98	True	True	83.44954299926758	86.42729616165161	[['b', 85.1511070728302]]	2.0	seen	False	True	1.6911070728302064	2.977753162384033	1.0	18.0	1624030430.7113	False		False	0.0	67.04759979248047	15.0
01	ses-010	20	images_fmri/koala/koala_04s.jpg	seen	4180	349	4	None	885.0	12669.0	4.0	seen-within-between	3	4	87.92999999999998	2.98	True	True	87.91233801841736	90.89675402641296	[['x', 89.14034605026245], ['y', 90.84027004241943]]	-1.0	unseen	True	False	1.2103460502624728	2.984416007995605	1.0	19.0	1624030435.1741	False		False	9.0	0.0	244.0
01	ses-010	21	images_fmri/shoe/shoe_04s.jpg	seen	6688	558	4	None	1424.0	20195.0	4.0	seen-between-within	3	4	92.4	2.98	True	False	92.39448618888856	95.36138796806335	[['x', 93.64197301864624]]	2.0	seen	False	True	1.2419730186462346	2.9669017791748047	1.0	20.0	1624030439.6562	False		False	0.0	71.52789998054504	16.0
01	ses-010	22	images_fmri/silverware/silverware_04s.jpg	seen	6772	565	4	None	1446.0	20506.0	4.0	seen-between-within	3	4	96.87	2.98	True	False	96.86329698562622	99.84438109397888	[['x', 99.26408910751343]]	2.0	seen	False	True	2.394089107513423	2.981084108352661	1.0	21.0	1624030444.1250	False		False	0.0	412.95329999923706	42.0
01	ses-010	23	images_fmri/fudge/fudge_04s.jpg	seen	3136	262	4	None	648.0	9324.0	4.0	seen-within-between	3	4	101.34	2.98	True	True	101.32789397239684	104.31027507781982	[['x', 103.71398591995239]]	-1.0	unseen	True	False	2.373985919952389	2.9823811054229736	1.0	22.0	1624030448.5896	False		False	9.0	0.0	338.0
01	ses-010	24	images_fmri/coin/coin_04s.jpg	unseen	1912	160	4	None	386.0	5554.0	4.0	unseen-between	1	4	105.81	2.98	False	False	105.7945911884308	108.77796411514282	[['b', 108.35482692718506]]	-1.0	unseen	False	False	2.5448269271850563	2.983372926712036	1.0	23.0	1624030453.0563	False		False			
01	ses-010	25	images_fmri/submarine/submarine_04s.jpg	unseen	7312	610	4	None	1578.0	22283.0	4.0	unseen-between	1	4	110.28	2.98	True	False	110.26338601112366	113.24418997764587	[['b', 112.6397111415863]]	-1.0	unseen	False	False	2.3597111415863026	2.980803966522217	1.0	24.0	1624030457.5251	False		False			
01	ses-010	26	images_fmri/shower_cap/shower_cap_04s.jpg	unseen	6724	561	4	None	1435.0	20343.0	4.0	unseen-within	1	4	114.75	2.98	False	False	114.74333000183104	117.71281909942628	[['b', 116.09206008911133]]	-1.0	unseen	False	False	1.342060089111328	2.969489097595215	1.0	25.0	1624030462.0051	False		False			
01	ses-010	27	images_fmri/cake/cake_04s.jpg	unseen	1240	104	4	None	238.0	3533.0	4.0	unseen-within	1	4	119.22	2.98	True	True	119.21227812767027	122.1942970752716	[['x', 121.67752504348755]]	-1.0	unseen	False	False	2.45752504348755	2.9820189476013184	1.0	26.0	1624030466.4740	False		False			
01	ses-010	28	images_fmri/crayon/crayon_04s.jpg	seen	2164	181	4	None	436.0	6301.0	4.0	seen-within	2	4	123.69	2.98	False	False	123.67687010765076	126.65985202789308	[['x', 125.84532594680786]]	2.0	seen	False	True	2.155325946807864	2.9829819202423096	1.0	27.0	1624030470.9386	False		False	0.0	80.46130013465881	18.0
01	ses-010	29	images_fmri/roof_rack/roof_rack_04s.jpg	seen	6376	532	4	None	1330.0	18917.0	4.0	seen-between	2	4	128.16	2.98	True	False	128.14393305778503	131.1263701915741	[['b', 130.8608169555664]]	-1.0	unseen	True	False	2.7008169555664097	2.9824371337890625	1.0	28.0	1624030475.4057	False		False	9.0	0.0	396.0
01	ses-010	30	images_fmri/inhaler/inhaler_04s.jpg	seen	3940	329	4	None	829.0	11855.0	4.0	seen-between	2	4	132.63	2.98	True	True	132.61339616775513	135.5928750038147	[['a', 134.41807007789612]]	-2.0	unseen	True	True	1.7880700778961227	2.9794788360595703	1.0	29.0	1624030479.8751	False		False	9.0	0.0	329.0
01	ses-010	31	images_fmri/cake/cake_04s.jpg	seen	1240	104	4	None	238.0	3533.0	4.0	seen-within	2	4	137.1	2.98	False	True	137.09626412391663	140.0636270046234	[['b', 138.17527294158936]]	2.0	seen	False	True	1.0752729415893612	2.967362880706787	1.0	30.0	1624030484.3580	False		False	0.0	17.884000062942505	4.0
01	ses-010	32	images_fmri/inhaler/inhaler_04s.jpg	seen	3940	329	4	None	829.0	11855.0	4.0	seen-between-within	3	4	141.57	2.98	False	True	141.56315898895264	144.5473439693451	[['b', 142.59393191337585]]	2.0	seen	False	True	1.023931913375861	2.984184980392456	1.0	31.0	1624030488.8249	False		False	0.0	8.94980001449585	2.0
01	ses-010	33	images_fmri/gargoyle/gargoyle_04s.jpg	seen	3172	265	4	None	658.0	9449.0	4.0	seen-within-between	3	4	146.04	2.98	False	True	146.02908301353455	149.00898504257202	[['a', 147.9605691432953]]	1.0	seen	False	False	1.920569143295296	2.979902029037476	1.0	32.0	1624030493.2908	False		False	9.0	0.0	287.0
01	ses-010	34	images_fmri/tiger/tiger_04s.jpg	seen	7720	644	4	None	1660.0	23430.0	4.0	seen-between	2	4	150.51	2.98	True	True	150.49322605133057	153.4755401611328	[['x', 152.4553050994873]]	-1.0	unseen	True	False	1.9453050994873136	2.982314109802246	1.0	33.0	1624030497.7550	False		False	9.0	0.0	393.0
01	ses-010	35	images_fmri/touchpad/touchpad_04s.jpg	seen	7876	657	4	None	1692.0	23873.0	4.0	seen-between	2	4	154.98	2.98	False	True	154.9628701210022	157.9458451271057	[['a', 157.6075279712677]]	1.0	seen	False	False	2.6275279712677104	2.982975006103516	1.0	34.0	1624030502.2246	False		False	9.0	0.0	345.0
01	ses-010	36	images_fmri/gearshift/gearshift_04n.jpg	seen	3220	269	4	None	669.0	9588.0	4.0	seen-between	2	4	159.45	2.98	False	False	159.44339203834534	162.40934109687805	[['b', 162.784441947937]]	-1.0	unseen	True	False	3.334441947937023	2.965949058532715	1.0	35.0	1624030506.7051	False		False	9.0	0.0	431.0
01	ses-010	37	images_fmri/roof_rack/roof_rack_04s.jpg	seen	6376	532	4	None	1330.0	18917.0	4.0	seen-between-within	3	4	163.92	2.98	True	True	163.90847206115723	166.89371800422668	[['b', 165.50133514404297]]	2.0	seen	False	True	1.5813351440429813	2.985245943069458	1.0	36.0	1624030511.1702	False		False	0.0	35.7645001411438	8.0
01	ses-010	38	images_fmri/melon/melon_04s.jpg	unseen	4744	396	4	None	995.0	14166.0	4.0	unseen-within	1	4	168.39	2.98	True	True	168.37617301940918	171.35977911949158	[['x', 170.03016805648804]]	-1.0	unseen	False	False	1.6401680564880508	2.983606100082397	1.0	37.0	1624030515.6379	False		False			
01	ses-010	39	images_fmri/toothpick/toothpick_04s.jpg	unseen	7840	654	4	None	1682.0	23735.0	4.0	unseen-within	1	4	172.86	2.98	False	False	172.8463020324707	175.82619500160217	[['b', 174.28227305412292]]	-1.0	unseen	False	False	1.4222730541229112	2.9798929691314697	1.0	38.0	1624030520.1080	False		False			
01	ses-010	40	images_fmri/wooden_leg/wooden_leg_04s.jpg	seen	8560	714	4	None	1835.0	25836.0	4.0	seen-between	2	4	177.32999999999996	2.98	False	False	177.31215810775757	180.29156112670896	[['b', 178.7709789276123]]	-1.0	unseen	True	False	1.440978927612349	2.979403018951416	1.0	39.0	1624030524.5739	False		False	9.0	0.0	298.0
01	ses-010	41	images_fmri/melon/melon_04s.jpg	seen	4744	396	4	None	995.0	14166.0	4.0	seen-within	2	4	181.8	2.98	False	False	181.79507398605347	184.75803899765012	[['a', 184.1100549697876]]	1.0	seen	False	False	2.3100549697875863	2.96296501159668	1.0	40.0	1624030529.0568	False		False	0.0	13.418899774551392	3.0
01	ses-010	42	images_fmri/eggbeater/eggbeater_04s.jpg	unseen	2728	228	4	None	549.0	7965.0	4.0	unseen-between	1	4	186.27	2.98	True	False	186.2578830718994	189.24141097068787	[['b', 188.45996594429016]]	-1.0	unseen	False	False	2.189965944290151	2.983527898788452	1.0	41.0	1624030533.5196	False		False			
01	ses-010	43	images_fmri/car/car_04s.jpg	unseen	1408	118	4	None	268.0	3943.0	4.0	unseen-within	1	4	190.74	2.98	True	True	190.73027110099792	193.7090141773224	[['x', 192.5999629497528]]	-1.0	unseen	False	False	1.8599629497527983	2.978743076324463	1.0	42.0	1624030537.9920	False		False			
01	ses-010	44	images_fmri/shovel/shovel_04n.jpg	seen	6700	559	4	None	1433.0	20318.0	4.0	seen-within-between	3	4	195.21	2.98	False	False	195.1954221725464	198.1780161857605	[['a', 196.78781008720398]]	1.0	seen	False	False	1.5778100872039715	2.9825940132141118	1.0	43.0	1624030542.4572	False		False	9.0	0.0	504.0
01	ses-010	45	images_fmri/flashlight/flashlight_04s.jpg	seen	3004	251	4	None	612.0	8842.0	4.0	seen-between	2	4	199.68	2.98	True	False	199.6624791622162	202.64522409439087	[['b', 201.13901090621948]]	-1.0	unseen	True	False	1.4590109062194756	2.9827449321746826	1.0	44.0	1624030546.9242	False		False	9.0	0.0	320.0
01	ses-010	46	images_fmri/lizard/lizard_04n.jpg	unseen	4456	372	4	None	938.0	13396.0	4.0	unseen-between	1	4	204.15	2.98	True	True	204.14348196983337	207.11029815673828	[['x', 206.32817792892456]]	-1.0	unseen	False	False	2.178177928924555	2.9668161869049072	1.0	45.0	1624030551.4052	False		False			
01	ses-010	47	images_fmri/face/face_04s.jpg	unseen	2836	237	4	None	570.0	8247.0	4.0	unseen-between	1	4	208.62	2.98	False	False	208.61156105995175	211.59070301055908	[['b', 209.82926607131958]]	-1.0	unseen	False	False	1.2092660713195755	2.9791419506073	1.0	46.0	1624030555.8733	False		False			
01	ses-010	48	images_fmri/oyster/oyster_04s.jpg	unseen	5212	435	4	None	1093.0	15563.0	4.0	unseen-within	1	4	213.09	2.98	True	True	213.07874417304996	216.0581111907959	[['x', 214.80221605300903]]	-1.0	unseen	False	False	1.7122160530090298	2.979367017745972	1.0	47.0	1624030560.3405	False		False			
01	ses-010	49	images_fmri/watch/watch_04s.jpg	seen	8368	698	4	None	1787.0	25186.0	4.0	seen-between	2	4	217.56	2.98	False	False	217.54541110992432	220.5294270515442	[['b', 218.3956549167633]]	-1.0	unseen	True	False	0.8356549167633034	2.984015941619873	1.0	48.0	1624030564.8072	False		False	9.0	0.0	305.0
01	ses-010	50	images_fmri/suit/suit_04s.jpg	seen	7336	612	4	None	1581.0	22322.0	4.0	seen-within-between	3	4	222.03	2.98	False	True	222.0268239974976	224.9947509765625	[['x', 223.6711459159851]]	-1.0	unseen	True	False	1.6411459159851065	2.9679269790649414	1.0	49.0	1624030569.2886	False		False	9.0	0.0	476.0
01	ses-010	51	images_fmri/stove1/stove1_04s.jpg	seen	7264	606	4	None	1564.0	22086.0	4.0	seen-within	2	4	226.5	2.98	True	False	226.49136400222775	229.473788022995	[['b', 228.69185996055603], ['x', 229.67081093788147], ['x', 229.96154713630676]]	-1.0	unseen	True	False	2.1918599605560303	2.982424020767212	1.0	50.0	1624030573.7531	False		False	0.0	196.67919993400574	44.0
01	ses-010	52	images_fmri/mast/mast_04s.jpg	unseen	4684	391	4	None	982.0	13995.0	4.0	unseen-between	1	4	230.97	2.98	False	True	230.95691204071045	233.94033217430115	[['x', 232.52662992477417]]	-1.0	unseen	False	False	1.556629924774171	2.9834201335906982	1.0	51.0	1624030578.2187	False		False			
01	ses-010	53	images_fmri/banana_split/banana_split_04s.jpg	seen	364	31	4	None	66.0	981.0	4.0	seen-between-within	3	4	235.44	2.98	False	True	235.42661118507385	238.41271996498108	[['b', 236.5017969608307]]	2.0	seen	False	True	1.0617969608306908	2.9861087799072266	1.0	52.0	1624030582.6884	False		False	0.0	165.3949999809265	37.0
01	ses-010	54	images_fmri/computer/computer_04s.jpg	seen	1960	164	4	None	395.0	5681.0	4.0	seen-within-between	3	4	239.91	2.98	False	False	239.89097714424133	242.8731071949005	[['b', 241.67562198638916]]	-1.0	unseen	True	False	1.7656219863891636	2.98213005065918	1.0	53.0	1624030587.1527	False		False	9.0	0.0	417.0
01	ses-010	55	images_fmri/camcorder/camcorder_04s.jpg	seen	1264	106	4	None	245.0	3630.0	4.0	seen-within-between	3	4	244.38	2.98	False	True	244.3761720657349	247.34351706504825	[['x', 246.46786499023438]]	-1.0	unseen	True	False	2.0878649902343795	2.9673449993133545	1.0	54.0	1624030591.6379	False		False	9.0	0.0	281.0
01	ses-010	56	images_fmri/wooden_leg/wooden_leg_04s.jpg	seen	8560	714	4	None	1835.0	25836.0	4.0	seen-between-within	3	4	248.85	2.98	False	True	248.83960509300232	251.8231580257416	[['b', 250.00149607658386]]	2.0	seen	False	True	1.151496076583868	2.983552932739258	1.0	55.0	1624030596.1013	False		False	0.0	71.52740001678467	16.0
01	ses-010	57	images_fmri/credit_card/credit_card_04s.jpg	seen	2176	182	4	None	439.0	6342.0	4.0	seen-within-between	3	4	253.32	2.98	False	False	253.30734300613403	256.289715051651	[['b', 254.6075370311737]]	-1.0	unseen	True	False	1.2875370311737129	2.982372045516968	1.0	56.0	1624030600.5691	False		False	9.0	0.0	252.0
01	ses-010	58	images_fmri/elephant/elephant_04n.jpg	seen	2764	231	4	None	555.0	8046.0	4.0	seen-within	2	4	257.79	2.98	True	False	257.77385210990906	260.75713205337524	[['x', 260.04251313209534]]	2.0	seen	False	True	2.2525131320953165	2.9832799434661865	1.0	57.0	1624030605.0356	False		False	0.0	520.2368998527527	66.0
01	ses-010	59	images_fmri/pudding/pudding_04s.jpg	seen	5992	500	4	None	1247.0	17731.0	4.0	seen-within	2	4	262.26	2.98	False	False	262.2433331012726	265.222421169281	[['x', 263.6555669307709]]	2.0	seen	False	True	1.3955669307708831	2.979088068008423	1.0	58.0	1624030609.5051	False		False	0.0	721.3840999603271	111.0
01	ses-010	60	images_fmri/flashlight/flashlight_04s.jpg	seen	3004	251	4	None	612.0	8842.0	4.0	seen-between-within	3	4	266.73	2.98	True	False	266.7264401912689	269.6948230266571	[['b', 269.89127707481384]]	-1.0	unseen	True	False	3.1612770748138246	2.968382835388184	1.0	59.0	1624030613.9882	False		False	0.0	67.06399989128113	15.0
