subject	session	TrialNumber	image_path	condition	image_nr	category_nr	exemplar_nr	test_image_nr	things_category_nr	things_image_nr	things_exemplar_nr	subcondition	repetition	run	onset	duration	response_mapping_flip_h	response_mapping_flip_v	onset_flip	offset_flip	keypresses	response	response_txt	error	response_confidence	response_time	duration_flip	ran	order	session_trial_time	atypical	atypical_log	exclude_session	delay_days	delay_seconds	trials_since_lastrep
02	ses-015	1	images_fmri/sword/sword_04s.jpg	seen	7420	619	4	None	1603.0	22647.0	4.0	seen-within	2	5	3.0	2.98	True	False	3.0034830570220947	5.967916965484619	[['x', 4.051226854324341]]	2.0	seen	False	True	1.0512268543243408	2.9644339084625244	1.0	0.0	1628694607.1966	False		False	0.0	172.76149988174438	17.0
02	ses-015	2	images_fmri/knife/knife_04s.jpg	unseen	4156	347	4	None	880.0	12594.0	4.0	unseen-between	1	5	7.47	2.98	False	True	7.46688985824585	10.449643850326538	[['x', 10.088088989257812]]	-1.0	unseen	False	False	2.6180889892578127	2.9827539920806885	1.0	1.0	1628694611.6600	False		False			
02	ses-015	3	images_fmri/duster/duster_04s.jpg	seen	2644	221	4	None	535.0	7767.0	4.0	seen-within-between	3	5	11.94	2.98	True	False	11.936068058013916	14.916223049163818	[['y', 13.744951963424683]]	1.0	seen	False	False	1.8049519634246831	2.9801549911499023	1.0	2.0	1628694616.1292	False		False	7.0	0.0	556.0
02	ses-015	4	images_fmri/bison/bison_04n.jpg	seen	676	57	4	None	135.0	2066.0	4.0	seen-between-within	3	5	16.41	2.98	True	True	16.401713848114014	19.387354850769043	[['b', 17.319474935531616]]	2.0	seen	False	True	0.909474935531616	2.9856410026550293	1.0	3.0	1628694620.5948	False		False	0.0	490.95359992980957	66.0
02	ses-015	5	images_fmri/shower_cap/shower_cap_04s.jpg	seen	6724	561	4	None	1435.0	20343.0	4.0	seen-within-between	3	5	20.88	2.98	True	True	20.88565683364868	23.849196910858154	[['y', 22.407129049301147], ['b', 23.516878843307495]]	1.0	seen	False	False	1.5271290493011485	2.9635400772094727	1.0	4.0	1628694625.0787	False		False	7.0	0.0	351.0
02	ses-015	6	images_fmri/computer_screen/computer_screen_04s.jpg	unseen	1972	165	4	None	396.0	5693.0	4.0	unseen-within	1	5	25.35	2.98	False	False	25.352386951446533	28.332355976104736	[['b', 27.929128885269165]]	-1.0	unseen	False	False	2.579128885269164	2.979969024658203	1.0	5.0	1628694629.5455	False		False			
02	ses-015	7	images_fmri/sleeping_bag/sleeping_bag_04s.jpg	seen	6832	570	4	None	1463.0	20736.0	4.0	seen-within-between	3	5	29.82	2.98	False	False	29.819427013397217	32.79927492141724	[['b', 31.307973861694336]]	-1.0	unseen	True	False	1.4879738616943357	2.9798479080200195	1.0	6.0	1628694634.0125	False		False	7.0	0.0	253.0
02	ses-015	8	images_fmri/computer_screen/computer_screen_04s.jpg	seen	1972	165	4	None	396.0	5693.0	4.0	seen-within	2	5	34.29	2.98	True	True	34.283483028411865	37.27095890045166	[['b', 35.359288930892944]]	2.0	seen	False	True	1.0692889308929452	2.987475872039795	1.0	7.0	1628694638.4766	False		False	0.0	8.931099891662598	2.0
02	ses-015	9	images_fmri/hand/hand_04s.jpg	unseen	3628	303	4	None	745.0	10672.0	4.0	unseen-within	1	5	38.76	2.98	False	True	38.752923011779785	41.73229289054871	[['x', 40.03478002548218]]	-1.0	unseen	False	False	1.2747800254821795	2.979369878768921	1.0	8.0	1628694642.9460	False		False			
02	ses-015	10	images_fmri/egg_roll/egg_roll_04s.jpg	unseen	2716	227	4	None	548.0	7953.0	4.0	unseen-within	1	5	43.23	2.98	False	False	43.23504686355591	46.19874286651611	[['b', 45.00108098983765]]	-1.0	unseen	False	False	1.7710809898376496	2.963696002960205	1.0	9.0	1628694647.4281	False		False			
02	ses-015	11	images_fmri/jukebox/jukebox_04s.jpg	seen	4048	338	4	None	858.0	12269.0	4.0	seen-between-within	3	5	47.7	2.98	False	False	47.69964694976807	50.68590688705444	[['x', 48.76481103897095]]	2.0	seen	False	True	1.0648110389709444	2.986259937286377	1.0	10.0	1628694651.8927	False		False	0.0	1028.7033998966217	157.0
02	ses-015	12	images_fmri/envelope/envelope_04s.jpg	unseen	2788	233	4	None	559.0	8098.0	4.0	unseen-within	1	5	52.17	2.98	True	True	52.16921091079712	55.1483998298645	[['y', 54.90579605102539]]	1.0	seen	True	False	2.735796051025389	2.979188919067383	1.0	11.0	1628694656.3623	False		False			
02	ses-015	13	images_fmri/cup/cup_04s.jpg	seen	2296	192	4	None	461.0	6676.0	4.0	seen-between-within	3	5	56.64	2.98	False	True	56.63520884513855	59.62125897407532	[['b', 57.63408184051514]]	2.0	seen	False	True	0.9940818405151362	2.986050128936768	1.0	12.0	1628694660.8283	False		False	0.0	400.7388000488281	68.0
02	ses-015	14	images_fmri/umbrella/umbrella_04s.jpg	unseen	8116	677	4	None	1744.0	24580.0	4.0	unseen-between	1	5	61.11	2.98	False	True	61.09921884536743	64.08149695396423	[['x', 62.55062484741211]]	-1.0	unseen	False	False	1.44062484741211	2.9822781085968018	1.0	13.0	1628694665.2923	False		False			
02	ses-015	15	images_fmri/tractor/tractor_04s.jpg	seen	7912	660	4	None	1696.0	23926.0	4.0	seen-within	2	5	65.58	2.98	False	True	65.58723092079163	68.5535659790039	[['b', 66.43968391418457]]	2.0	seen	False	True	0.859683914184572	2.9663350582122803	1.0	14.0	1628694669.7803	False		False	0.0	356.0422999858856	58.0
02	ses-015	16	images_fmri/donkey/donkey_04s.jpg	unseen	2512	210	4	None	505.0	7296.0	4.0	unseen-between	1	5	70.05	2.98	True	False	70.05341386795044	73.0312340259552	[['b', 71.89561104774475]]	-1.0	unseen	False	False	1.8456110477447536	2.9778201580047607	1.0	15.0	1628694674.2465	False		False			
02	ses-015	17	images_fmri/tongs/tongs_04s.jpg	unseen	7804	651	4	None	1675.0	23645.0	4.0	unseen-between	1	5	74.52	2.98	False	True	74.52020192146301	77.49778985977173	[['x', 75.84238386154175]]	-1.0	unseen	False	False	1.322383861541752	2.977587938308716	1.0	16.0	1628694678.7133	False		False			
02	ses-015	18	images_fmri/mousetrap/mousetrap_04n.jpg	seen	4948	413	4	None	1030.0	14682.0	4.0	seen-within	2	5	78.99	2.98	True	False	78.98531794548035	81.97018098831177	[['x', 80.1856758594513]]	2.0	seen	False	True	1.195675859451299	2.984863042831421	1.0	17.0	1628694683.1784	False		False	0.0	333.6751000881195	53.0
02	ses-015	19	images_fmri/bike/bike_04s.jpg	seen	616	52	4	None	124.0	1889.0	4.0	seen-between-within	3	5	83.46	2.98	False	False	83.4536030292511	86.43609595298767	[['x', 84.38035988807678]]	2.0	seen	False	True	0.9203598880767884	2.9824929237365723	1.0	18.0	1628694687.6467	False		False	0.0	705.5179998874664	114.0
02	ses-015	20	images_fmri/kazoo/kazoo_04s.jpg	seen	4084	341	4	None	865.0	12364.0	4.0	seen-between	2	5	87.92999999999998	2.98	True	True	87.93489694595337	90.89766001701356	[['y', 90.5097348690033]]	1.0	seen	False	False	2.579734869003317	2.9627630710601807	1.0	19.0	1628694692.1280	False		False	7.0	0.0	330.0
02	ses-015	21	images_fmri/ant/ant_04s.jpg	seen	124	11	4	None	25.0	347.0	4.0	seen-between	2	5	92.4	2.98	False	True	92.39855289459229	95.38074684143066	[['a', 93.88348388671875]]	1.0	seen	False	False	1.4834838867187443	2.982193946838379	1.0	20.0	1628694696.5916	False		False	7.0	0.0	290.0
02	ses-015	22	images_fmri/egg_roll/egg_roll_04s.jpg	seen	2716	227	4	None	548.0	7953.0	4.0	seen-within	2	5	96.87	2.98	True	False	96.86909198760986	99.8507468700409	[['x', 97.98541688919067]]	2.0	seen	False	True	1.1154168891906693	2.9816548824310303	1.0	21.0	1628694701.0622	False		False	0.0	53.63409996032715	12.0
02	ses-015	23	images_fmri/iron/iron_04s.jpg	seen	3952	330	4	None	833.0	11907.0	4.0	seen-between	2	5	101.34	2.98	True	True	101.33168482780457	104.31384682655334	[['x', 103.96328091621399]]	-1.0	unseen	True	False	2.623280916213986	2.9821619987487797	1.0	22.0	1628694705.5248	False		False	7.0	0.0	360.0
02	ses-015	24	images_fmri/spider/spider_04s.jpg	seen	7060	589	4	None	1514.0	21408.0	4.0	seen-between	2	5	105.81	2.98	True	False	105.80028486251832	108.78021383285522	[['b', 108.64046287536621]]	-1.0	unseen	True	False	2.8304628753662087	2.979928970336914	1.0	23.0	1628694709.9934	False		False	7.0	0.0	274.0
02	ses-015	25	images_fmri/padlock/padlock_04n.jpg	seen	5236	437	4	None	1096.0	15604.0	4.0	seen-between-within	3	5	110.28	2.98	True	False	110.28029584884644	113.25113201141356	[['x', 111.24836802482605]]	2.0	seen	False	True	0.9683680248260488	2.9708361625671387	1.0	24.0	1628694714.4734	False		False	0.0	1220.91890001297	200.0
02	ses-015	26	images_fmri/valve/valve_04s.jpg	unseen	8164	681	4	None	1752.0	24688.0	4.0	unseen-between	1	5	114.75	2.98	False	True	114.75085306167604	117.73007202148438	[['x', 116.13416290283203]]	-1.0	unseen	False	False	1.3841629028320312	2.9792189598083496	1.0	25.0	1628694718.9439	False		False			
02	ses-015	27	images_fmri/computer/computer_04s.jpg	seen	1960	164	4	None	395.0	5681.0	4.0	seen-within	2	5	119.22	2.98	False	False	119.21804094314577	122.20202898979188	[['x', 120.22442197799683]]	2.0	seen	False	True	1.0044219779968273	2.983988046646118	1.0	26.0	1628694723.4111	False		False	0.0	1203.0197999477386	196.0
02	ses-015	28	images_fmri/ant/ant_04s.jpg	seen	124	11	4	None	25.0	347.0	4.0	seen-between-within	3	5	123.69	2.98	True	True	123.68456196784972	126.66420197486876	[['b', 124.56939101219177]]	2.0	seen	False	True	0.8793910121917747	2.979640007019043	1.0	27.0	1628694727.8777	False		False	0.0	31.286100149154663	7.0
02	ses-015	29	images_fmri/touchpad/touchpad_04s.jpg	seen	7876	657	4	None	1692.0	23873.0	4.0	seen-between	2	5	128.16	2.98	True	False	128.16694593429563	131.12964606285095	[['b', 129.76217103004456]]	-1.0	unseen	True	False	1.602171030044559	2.962700128555298	1.0	28.0	1628694732.3600	False		False	7.0	0.0	387.0
02	ses-015	30	images_fmri/typewriter/typewriter_04s.jpg	seen	8092	675	4	None	1742.0	24550.0	4.0	seen-within-between	3	5	132.63	2.98	True	True	132.6306438446045	135.5966079235077	[['b', 134.00611805915833]]	2.0	seen	False	True	1.3761180591583295	2.9659640789031982	1.0	29.0	1628694736.8237	False		False	7.0	0.0	356.0
02	ses-015	31	images_fmri/tattoo/tattoo_04s.jpg	unseen	7576	632	4	None	1630.0	23014.0	4.0	unseen-between	1	5	137.1	2.98	True	True	137.1007900238037	140.07946586608887	[['x', 139.4660198688507]]	-1.0	unseen	False	False	2.3660198688507137	2.978675842285156	1.0	30.0	1628694741.2939	False		False			
02	ses-015	32	images_fmri/pocketknife/pocketknife_04s.jpg	seen	5764	481	4	None	1208.0	17166.0	4.0	seen-within-between	3	5	141.57	2.98	False	False	141.56684589385986	144.54608702659607	[['a', 143.1461808681488]]	1.0	seen	False	False	1.5761808681488103	2.979241132736206	1.0	31.0	1628694745.7599	False		False	7.0	0.0	522.0
02	ses-015	33	images_fmri/lasagna/lasagna_04s.jpg	seen	4252	355	4	None	899.0	12868.0	4.0	seen-within-between	3	5	146.04	2.98	True	False	146.0333800315857	149.01261186599731	[['y', 147.69208693504333]]	1.0	seen	False	False	1.652086935043343	2.979231834411621	1.0	32.0	1628694750.2265	False		False	7.0	0.0	300.0
02	ses-015	34	images_fmri/tree/tree_04s.jpg	unseen	7984	666	4	None	1709.0	24105.0	4.0	unseen-between	1	5	150.51	2.98	True	False	150.51551294326782	153.47910594940186	[['b', 152.80819296836853]]	-1.0	unseen	False	False	2.29819296836854	2.963593006134033	1.0	33.0	1628694754.7086	False		False			
02	ses-015	35	images_fmri/record/record_04s.jpg	seen	6196	517	4	None	1296.0	18434.0	4.0	seen-within	2	5	154.98	2.98	True	True	154.9829728603363	157.96225905418396	[['b', 156.49692487716675]]	2.0	seen	False	True	1.5169248771667585	2.979286193847656	1.0	34.0	1628694759.1761	False		False	0.0	1533.7425999641418	248.0
02	ses-015	36	images_fmri/ruler/ruler_04s.jpg	seen	6400	534	4	None	1342.0	19085.0	4.0	seen-within-between	3	5	159.45	2.98	True	False	159.4465868473053	162.4288239479065	[['y', 161.03015685081482]]	1.0	seen	False	False	1.5801568508148307	2.9822371006011963	1.0	35.0	1628694763.6397	False		False	7.0	0.0	329.0
02	ses-015	37	images_fmri/rhinoceros/rhinoceros_04s.jpg	seen	6244	521	4	None	1307.0	18609.0	4.0	seen-between-within	3	5	163.92	2.98	False	False	163.91328692436218	166.90144395828247	[['x', 164.78442192077637]]	2.0	seen	False	True	0.8644219207763797	2.988157033920288	1.0	36.0	1628694768.1064	False		False	0.0	1028.6867001056671	157.0
02	ses-015	38	images_fmri/crayon/crayon_04s.jpg	seen	2164	181	4	None	436.0	6301.0	4.0	seen-between-within	3	5	168.39	2.98	False	False	168.38393902778623	171.36310386657715	[['x', 169.45106291770935]]	2.0	seen	False	True	1.0610629177093642	2.9791648387908936	1.0	37.0	1628694772.5770	False		False	0.0	463.3086998462677	82.0
02	ses-015	39	images_fmri/clipboard/clipboard_04s.jpg	seen	1804	151	4	None	356.0	5151.0	4.0	seen-between-within	3	5	172.86	2.98	False	True	172.86574697494507	175.8345959186554	[['b', 174.04913902282715]]	2.0	seen	False	True	1.1891390228271348	2.968848943710327	1.0	38.0	1628694777.0588	False		False	0.0	1542.6974000930786	250.0
02	ses-015	40	images_fmri/apple/apple_04s.jpg	unseen	184	16	4	None	31.0	437.0	4.0	unseen-between	1	5	177.32999999999996	2.98	False	False	177.33219289779663	180.3116309642792	[['a', 178.7376799583435]]	1.0	seen	True	False	1.4076799583435502	2.979438066482544	1.0	39.0	1628694781.5253	False		False			
02	ses-015	41	images_fmri/wrench/wrench_04s.jpg	seen	8596	717	4	None	1842.0	25931.0	4.0	seen-between-within	3	5	181.8	2.98	False	True	181.7972068786621	184.7837738990784	[['b', 182.6551079750061]]	2.0	seen	False	True	0.8551079750060921	2.98656702041626	1.0	40.0	1628694785.9903	False		False	0.0	360.50359988212585	59.0
02	ses-015	42	images_fmri/battery/battery_04n.jpg	seen	448	38	4	None	98.0	1472.0	4.0	seen-within-between	3	5	186.27	2.98	True	False	186.26615285873413	189.2448389530182	[['y', 187.49883198738098]]	1.0	seen	False	False	1.2288319873809712	2.9786860942840576	1.0	41.0	1628694790.4592	False		False	7.0	0.0	353.0
02	ses-015	43	images_fmri/ring/ring_04s.jpg	seen	6304	526	4	None	1314.0	18700.0	4.0	seen-within	2	5	190.74	2.98	True	True	190.7335619926453	193.7167408466339	[['b', 191.83771586418152]]	2.0	seen	False	True	1.0977158641815097	2.9831788539886475	1.0	42.0	1628694794.9267	False		False	0.0	1243.2530000209808	205.0
02	ses-015	44	images_fmri/tadpole/tadpole_04s.jpg	unseen	7516	627	4	None	1615.0	22804.0	4.0	unseen-within	1	5	195.21	2.98	False	True	195.21424388885495	198.17804384231567	[['x', 197.3472499847412]]	-1.0	unseen	False	False	2.137249984741203	2.9637999534606934	1.0	43.0	1628694799.4073	False		False			
02	ses-015	45	images_fmri/teapot/teapot_04s.jpg	unseen	7588	633	4	None	1635.0	23092.0	4.0	unseen-within	1	5	199.68	2.98	True	True	199.68153285980225	202.6612079143524	[['x', 200.97387790679932]]	-1.0	unseen	False	False	1.2938779067993096	2.979675054550171	1.0	44.0	1628694803.8746	False		False			
02	ses-015	46	images_fmri/coat/coat_04s.jpg	unseen	1840	154	4	None	370.0	5339.0	4.0	unseen-within	1	5	204.15	2.98	True	True	204.14954900741577	207.1276178359985	[['x', 205.9954068660736]]	-1.0	unseen	False	False	1.8454068660736027	2.978068828582764	1.0	45.0	1628694808.3426	False		False			
02	ses-015	47	images_fmri/hedgehog/hedgehog_04s.jpg	unseen	3724	311	4	None	775.0	11087.0	4.0	unseen-between	1	5	208.62	2.98	True	False	208.61293387413025	211.5941319465637	[['y', 211.31677103042603]]	1.0	seen	True	False	2.696771030426021	2.981198072433472	1.0	46.0	1628694812.8060	False		False			
02	ses-015	48	images_fmri/key/key_04s.jpg	seen	4120	344	4	None	870.0	12444.0	4.0	seen-between	2	5	213.09	2.98	True	True	213.0820598602295	216.060742855072	[['y', 215.71089792251587]]	1.0	seen	False	False	2.6208979225158657	2.9786829948425293	1.0	47.0	1628694817.2751	False		False	7.0	0.0	316.0
02	ses-015	49	images_fmri/key/key_04s.jpg	seen	4120	344	4	None	870.0	12444.0	4.0	seen-between-within	3	5	217.56	2.98	False	False	217.5637359619141	220.53291988372803	[['x', 218.71934294700623]]	2.0	seen	False	True	1.159342947006223	2.969183921813965	1.0	48.0	1628694821.7568	False		False	0.0	4.4816999435424805	1.0
02	ses-015	50	images_fmri/lectern/lectern_04s.jpg	unseen	4276	357	4	None	909.0	13001.0	4.0	unseen-between	1	5	222.03	2.98	False	False	222.02832198143005	225.0105059146881	[['b', 223.3874650001526]]	-1.0	unseen	False	False	1.3574650001525868	2.9821839332580566	1.0	49.0	1628694826.2214	False		False			
02	ses-015	51	images_fmri/tadpole/tadpole_04s.jpg	seen	7516	627	4	None	1615.0	22804.0	4.0	seen-within	2	5	226.5	2.98	False	False	226.49925589561465	229.48037385940552	[['x', 227.51054286956787]]	2.0	seen	False	True	1.010542869567871	2.9811179637908936	1.0	50.0	1628694830.6923	False		False	0.0	31.28500008583069	7.0
02	ses-015	52	images_fmri/thumbtack/thumbtack_04s.jpg	unseen	7684	641	4	None	1655.0	23366.0	4.0	unseen-between	1	5	230.97	2.98	False	False	230.9658529758453	233.94399785995483	[['y', 232.28420400619507]]	-2.0	unseen	False	True	1.3142040061950695	2.978144884109497	1.0	51.0	1628694835.1589	False		False			
02	ses-015	53	images_fmri/praying_mantis/praying_mantis_04s.jpg	seen	5932	495	4	None	1239.0	17618.0	4.0	seen-within	2	5	235.44	2.98	False	False	235.4315209388733	238.41544485092163	[['x', 236.44350600242615]]	2.0	seen	False	True	1.0035060024261495	2.98392391204834	1.0	52.0	1628694839.6246	False		False	0.0	808.3294999599457	137.0
02	ses-015	54	images_fmri/garbage/garbage_04s.jpg	seen	3160	264	4	None	656.0	9422.0	4.0	seen-between	2	5	239.91	2.98	True	True	239.9136579036713	242.87681984901428	[['a', 241.44532799720764]]	-2.0	unseen	True	True	1.535327997207645	2.9631619453430176	1.0	53.0	1628694844.1067	False		False	7.0	0.0	558.0
02	ses-015	55	images_fmri/microscope/microscope_04s.jpg	unseen	4768	398	4	None	1000.0	14237.0	4.0	unseen-between	1	5	244.38	2.98	False	True	244.38070583343503	247.35993003845212	[['a', 245.86221504211426]]	1.0	seen	True	False	1.4822150421142624	2.97922420501709	1.0	54.0	1628694848.5738	False		False			
02	ses-015	56	images_fmri/meat_grinder/meat_grinder_04s.jpg	unseen	4720	394	4	None	989.0	14087.0	4.0	unseen-within	1	5	248.85	2.98	True	True	248.84826493263245	251.82642698287964	[['a', 250.74869990348816]]	-2.0	unseen	False	True	1.8986999034881649	2.9781620502471924	1.0	55.0	1628694853.0414	False		False			
02	ses-015	57	images_fmri/bear/bear_04s.jpg	seen	496	42	4	None	106.0	1594.0	4.0	seen-within	2	5	253.32	2.98	False	True	253.31422185897827	256.29824805259705	[['b', 254.2523958683014]]	2.0	seen	False	True	0.9323958683013984	2.9840261936187744	1.0	56.0	1628694857.5073	False		False	0.0	400.7232999801636	68.0
02	ses-015	58	images_fmri/hand/hand_04s.jpg	seen	3628	303	4	None	745.0	10672.0	4.0	seen-within	2	5	257.79	2.98	False	True	257.796511888504	260.760351896286	[['b', 258.69941306114197]]	2.0	seen	False	True	0.9094130611419472	2.9638400077819824	1.0	57.0	1628694861.9896	False		False	0.0	219.04359984397888	49.0
02	ses-015	59	images_fmri/wallet/wallet_04s.jpg	seen	8272	690	4	None	1777.0	25050.0	4.0	seen-between	2	5	262.26	2.98	False	False	262.2649278640747	265.2427020072937	[['b', 263.82989382743835]]	-1.0	unseen	True	False	1.5698938274383636	2.977774143218994	1.0	58.0	1628694866.4580	False		False	7.0	0.0	376.0
02	ses-015	60	images_fmri/hairbrush/hairbrush_04s.jpg	seen	3556	297	4	None	735.0	10539.0	4.0	seen-between-within	3	5	266.73	2.98	True	False	266.73014998435974	269.7092399597168	[['x', 267.987028837204]]	2.0	seen	False	True	1.2570288372039613	2.979089975357056	1.0	59.0	1628694870.9232	False		False	0.0	534.8335998058319	98.0
