subject	session	TrialNumber	image_path	condition	image_nr	category_nr	exemplar_nr	test_image_nr	things_category_nr	things_image_nr	things_exemplar_nr	subcondition	repetition	run	onset	duration	response_mapping_flip_h	response_mapping_flip_v	onset_flip	offset_flip	keypresses	response	response_txt	error	response_confidence	response_time	duration_flip	ran	order	session_trial_time	atypical	atypical_log	exclude_session	delay_days	delay_seconds	trials_since_lastrep
03	ses-019	1	images_fmri/wand/wand_04s.jpg	unseen	8320	694	4	None	1781.0	25107.0	4.0	unseen-within	1	1	3.0	2.98	False	True	3.0008413789910264	5.966925865970552	[['y', 5.45408325799508]]	-2.0	unseen	False	True	2.45408325799508	2.966084486979525	1.0	0.0	446037.3210	False		False			
03	ses-019	2	images_fmri/leopard/leopard_06s.jpg	seen	4350	363	6	None	918.0	13125.0	6.0	seen-within-between	3	1	7.47	2.98	False	False	7.467718700005207	10.451164030004293	[['b', 9.461486522981431]]	-1.0	unseen	True	False	1.991486522981432	2.983445329999085	1.0	1.0	446041.7878	False		False	7.0	0.0	47.0
03	ses-019	3	images_fmri/chalkboard/chalkboard_06s.jpg	seen	1578	132	6	None	304.0	4429.0	6.0	seen-within-between	3	1	11.94	2.98	True	True	11.937492385972291	14.916914087021723	[['a', 13.430336653022096]]	-2.0	unseen	True	True	1.490336653022096	2.979421701049432	1.0	2.0	446046.2576	False		False	7.0	0.0	77.0
03	ses-019	4	images_fmri/gearshift/gearshift_04n.jpg	unseen	3220	269	4	None	669.0	9588.0	4.0	unseen-within	1	1	16.41	2.98	True	True	16.405089245003182	19.385106516012456	[['y', 18.055227052012924]]	1.0	seen	True	False	1.645227052012924	2.980017271009274	1.0	3.0	446050.7252	False		False			
03	ses-019	5	images_fmri/pretzel/pretzel_06s.jpg	seen	5946	496	6	None	1240.0	17641.0	6.0	seen-within-between	3	1	20.88	2.98	False	True	20.88682199100731	23.849685009976383	[['a', 22.84912688098848]]	1.0	seen	False	False	1.96912688098848	2.962863018969074	1.0	4.0	446055.2070	False		False	7.0	0.0	42.0
03	ses-019	6	images_fmri/rhinoceros/rhinoceros_06s.jpg	seen	6246	521	6	None	1307.0	18611.0	6.0	seen-between	2	1	25.35	2.98	False	False	25.35338036797475	28.33470281300833	[['y', 27.420088701997884]]	-2.0	unseen	True	True	2.070088701997882	2.981322445033584	1.0	5.0	446059.6735	False		False	7.0	0.0	56.0
03	ses-019	7	images_fmri/applesauce/applesauce_04s.jpg	unseen	196	17	4	None	33.0	461.0	4.0	unseen-within	1	1	29.82	2.98	False	False	29.817202752979934	32.80007473699516	[['y', 31.79542511398904]]	-2.0	unseen	False	True	1.97542511398904	2.982871984015219	1.0	6.0	446064.1373	False		False			
03	ses-019	8	images_fmri/llama/llama_04n.jpg	unseen	4468	373	4	None	939.0	13408.0	4.0	unseen-within	1	1	34.29	2.98	False	False	34.28826817800291	37.26673803396989	[['y', 35.672495105012786]]	-2.0	unseen	False	True	1.3824951050127865	2.9784698559669778	1.0	7.0	446068.6084	False		False			
03	ses-019	9	images_fmri/vase/vase_06s.jpg	seen	8178	682	6	None	1754.0	24716.0	6.0	seen-between	2	1	38.76	2.98	False	False	38.75153465202311	41.73367727198638	[['y', 40.67794738500379], ['b', 41.30762057600077]]	-2.0	unseen	True	True	1.917947385003792	2.9821426199632697	1.0	8.0	446073.0717	False		False	7.0	0.0	101.0
03	ses-019	10	images_fmri/bubble/bubble_04s.jpg	unseen	1060	89	4	None	208.0	3132.0	4.0	unseen-within	1	1	43.23	2.98	True	False	43.23642694798764	46.2036489219754	[['a', 44.19814209797187]]	-2.0	unseen	False	True	0.9681420979718708	2.967221973987762	1.0	9.0	446077.5566	False		False			
03	ses-019	11	images_fmri/cage/cage_06s.jpg	seen	1230	103	6	None	237.0	3523.0	6.0	seen-within-between	3	1	47.7	2.98	True	True	47.70226807601284	50.6838268149877	[['a', 49.212567434005905], ['x', 50.022206433000974]]	-2.0	unseen	True	True	1.512567434005902	2.9815587389748544	1.0	10.0	446082.0224	False		False	7.0	0.0	173.0
03	ses-019	12	images_fmri/corn/corn_04s.jpg	unseen	2056	172	4	None	413.0	5930.0	4.0	unseen-between	1	1	52.17	2.98	True	True	52.1713191139861	55.15011248597875	[['a', 54.031715359014925]]	-2.0	unseen	False	True	1.861715359014923	2.978793371992652	1.0	11.0	446086.4914	False		False			
03	ses-019	13	images_fmri/sandpaper/sandpaper_04s.jpg	unseen	6436	537	4	None	1357.0	19300.0	4.0	unseen-between	1	1	56.64	2.98	True	False	56.63580279401504	59.61675734398887	[['a', 57.98730824701488]]	-2.0	unseen	False	True	1.3473082470148796	2.9809545499738306	1.0	12.0	446090.9559	False		False			
03	ses-019	14	images_fmri/kettle/kettle_04n.jpg	unseen	4108	343	4	None	869.0	12429.0	4.0	unseen-within	1	1	61.11	2.98	True	True	61.10283770097885	64.08360259898473	[['a', 62.72745752899209]]	-2.0	unseen	False	True	1.617457528992091	2.980764898005873	1.0	13.0	446095.4230	False		False			
03	ses-019	15	images_fmri/syringe/syringe_06s.jpg	seen	7434	620	6	None	1605.0	22675.0	6.0	seen-between	2	1	65.58	2.98	True	True	65.5856680989964	68.54863267601468	[['a', 67.91439585096668]]	-2.0	unseen	True	True	2.3343958509666862	2.9629645770182838	1.0	14.0	446099.9058	False		False	7.0	0.0	66.0
03	ses-019	16	images_fmri/dog/dog_06s.jpg	seen	2454	205	6	None	496.0	7169.0	6.0	seen-between	2	1	70.05	2.98	True	True	70.04910081799608	73.0335779489833	[['a', 71.32093180296943]]	-2.0	unseen	True	True	1.2709318029694288	2.984477130987216	1.0	15.0	446104.3692	False		False	7.0	0.0	343.0
03	ses-019	17	images_fmri/syringe/syringe_06s.jpg	seen	7434	620	6	None	1605.0	22675.0	6.0	seen-between-within	3	1	74.52	2.98	True	True	74.52033293398563	77.50262797699543	[['b', 75.54491412796779]]	2.0	seen	False	True	1.02491412796779	2.982295043009799	1.0	16.0	446108.8405	False		False	0.0	8.934699999983422	2.0
03	ses-019	18	images_fmri/egg/egg_06s.jpg	seen	2706	226	6	None	547.0	7940.0	6.0	seen-between	2	1	78.99	2.98	False	True	78.98720247700112	81.96518069598824	[['y', 80.32471298601013], ['x', 81.99107277998701]]	-2.0	unseen	True	True	1.334712986010132	2.9779782189871185	1.0	17.0	446113.3073	False		False	7.0	0.0	305.0
03	ses-019	19	images_fmri/cranberry/cranberry_04n.jpg	unseen	2116	177	4	None	431.0	6221.0	4.0	unseen-between	1	1	83.46	2.98	True	False	83.4497697079787	86.43150858598528	[['a', 84.77406927401898]]	-2.0	unseen	False	True	1.3140692740189903	2.981738878006581	1.0	18.0	446117.7699	False		False			
03	ses-019	20	images_fmri/omelet/omelet_06s.jpg	seen	5166	431	6	None	1077.0	15313.0	6.0	seen-between	2	1	87.92999999999998	2.98	False	False	87.93161253700964	90.89797853102208	[['b', 89.78099860297516]]	-1.0	unseen	True	False	1.8509986029751813	2.966365994012449	1.0	19.0	446122.2517	False		False	7.0	0.0	258.0
03	ses-019	21	images_fmri/horseshoe/horseshoe_06s.jpg	seen	3834	320	6	None	800.0	11443.0	6.0	seen-within-between	3	1	92.4	2.98	False	False	92.39884004299527	95.38256695400923	[['y', 94.89094705501338], ['b', 95.70225665299222]]	-2.0	unseen	True	True	2.490947055013379	2.983726911013946	1.0	20.0	446126.7190	False		False	7.0	0.0	99.0
03	ses-019	22	images_fmri/poster/poster_06s.jpg	seen	5874	490	6	None	1230.0	17495.0	6.0	seen-between	2	1	96.87	2.98	False	True	96.8655559180188	99.85394623602042	[['y', 98.09181837696815]]	-2.0	unseen	True	True	1.2218183769681443	2.9883903180016205	1.0	21.0	446131.1857	False		False	7.0	0.0	232.0
03	ses-019	23	images_fmri/egg/egg_06s.jpg	seen	2706	226	6	None	547.0	7940.0	6.0	seen-between-within	3	1	101.34	2.98	False	False	101.3325201079715	104.32047447800868	[['x', 102.28659383300692]]	2.0	seen	False	True	0.946593833006915	2.987954370037187	1.0	22.0	446135.6526	False		False	0.0	22.34529999998631	5.0
03	ses-019	24	images_fmri/cork/cork_04s.jpg	unseen	2032	170	4	None	410.0	5889.0	4.0	unseen-within	1	1	105.81	2.98	False	False	105.8016661439906	108.78259889199398	[['b', 107.68083315499825], ['y', 108.05320487101562]]	-1.0	unseen	False	False	1.870833154998252	2.980932748003397	1.0	23.0	446140.1218	False		False			
03	ses-019	25	images_fmri/revolver/revolver_06s.jpg	seen	6234	520	6	None	1305.0	18579.0	6.0	seen-within-between	3	1	110.28	2.98	True	False	110.28469173499616	113.2492269219947	[['a', 111.45200559002114]]	-2.0	unseen	True	True	1.1720055900211437	2.964535186998546	1.0	24.0	446144.6048	False		False	7.0	0.0	175.0
03	ses-019	26	images_fmri/wire_cutters/wire_cutters_06s.jpg	seen	8526	711	6	None	1830.0	25774.0	6.0	seen-within-between	3	1	114.75	2.98	True	False	114.75112778501352	117.7310585899977	[['b', 116.59689552697819]]	-1.0	unseen	True	False	1.8468955269781877	2.9799308049841784	1.0	25.0	446149.0713	False		False	7.0	0.0	292.0
03	ses-019	27	images_fmri/rhinoceros/rhinoceros_06s.jpg	seen	6246	521	6	None	1307.0	18611.0	6.0	seen-between-within	3	1	119.22	2.98	True	False	119.2195639499696	122.20127650699578	[['x', 120.24788222898496]]	2.0	seen	False	True	1.0278822289849645	2.981712557026185	1.0	26.0	446153.5397	False		False	0.0	93.86620000004768	21.0
03	ses-019	28	images_fmri/barrel/barrel_06s.jpg	seen	414	35	6	None	77.0	1141.0	6.0	seen-within-between	3	1	123.69	2.98	True	True	123.686379079998	126.66407195897771	[['x', 125.73058502597269], ['y', 127.34847534500295]]	-1.0	unseen	True	False	2.040585025972689	2.977692878979724	1.0	27.0	446158.0065	False		False	7.0	0.0	209.0
03	ses-019	29	images_fmri/brush/brush_06s.jpg	seen	1050	88	6	None	206.0	3109.0	6.0	seen-between	2	1	128.16	2.98	False	False	128.1471241649706	131.13693565496942	[['y', 129.24457412300399]]	-2.0	unseen	True	True	1.0845741230039891	2.9898114899988286	1.0	28.0	446162.4673	False		False	7.0	0.0	90.0
03	ses-019	30	images_fmri/shrimp/shrimp_06n.jpg	seen	6750	563	6	None	1439.0	20406.0	6.0	seen-within-between	3	1	132.63	2.98	False	True	132.6340370629914	135.59778629400537	[['a', 134.9147686829674]]	1.0	seen	False	False	2.2847686829674103	2.963749231013935	1.0	29.0	446166.9542	False		False	7.0	0.0	276.0
03	ses-019	31	images_fmri/antenna/antenna_06s.jpg	seen	162	14	6	None	28.0	385.0	6.0	seen-between	2	1	137.1	2.98	True	False	137.10241879097885	140.08119956898736	[['b', 139.4275726879714], ['y', 140.11478002701188]]	-1.0	unseen	True	False	2.327572687971412	2.978780778008513	1.0	30.0	446171.4225	False		False	7.0	0.0	260.0
03	ses-019	32	images_fmri/chocolate/chocolate_06s.jpg	seen	1746	146	6	None	339.0	4897.0	6.0	seen-between	2	1	141.57	2.98	True	True	141.56353582197335	144.55281354201725	[['a', 142.72344425698975]]	-2.0	unseen	True	True	1.1534442569897578	2.9892777200439014	1.0	31.0	446175.8837	False		False	7.0	0.0	136.0
03	ses-019	33	images_fmri/vase/vase_06s.jpg	seen	8178	682	6	None	1754.0	24716.0	6.0	seen-between-within	3	1	146.04	2.98	False	False	146.03006392996758	149.01661599299405	[['x', 146.957573503023]]	2.0	seen	False	True	0.9175735030230214	2.986552063026465	1.0	32.0	446180.3502	False		False	0.0	107.2785000000149	24.0
03	ses-019	34	images_fmri/strainer/strainer_04s.jpg	unseen	7276	607	4	None	1567.0	22124.0	4.0	unseen-within	1	1	150.51	2.98	True	True	150.50156588101527	153.47992677497678	[['a', 151.73285097099142]]	-2.0	unseen	False	True	1.2228509709914306	2.978360893961508	1.0	33.0	446184.8217	False		False			
03	ses-019	35	images_fmri/cupcake/cupcake_06s.jpg	seen	2310	193	6	None	462.0	6693.0	6.0	seen-between	2	1	154.98	2.98	True	True	154.98293493001256	157.94750546797877	[['b', 156.65178649598965]]	2.0	seen	False	True	1.6717864959896644	2.9645705379662104	1.0	34.0	446189.3031	False		False	7.0	0.0	145.0
03	ses-019	36	images_fmri/wallet/wallet_04s.jpg	unseen	8272	690	4	None	1777.0	25050.0	4.0	unseen-within	1	1	159.45	2.98	True	False	159.45115299301688	162.43091272498714	[['a', 160.96175675099948], ['b', 162.10177565302], ['a', 162.88549582101405]]	-2.0	unseen	False	True	1.5117567509994956	2.979759731970262	1.0	35.0	446193.7713	False		False			
03	ses-019	37	images_fmri/lip_balm/lip_balm_04s.jpg	unseen	4444	371	4	None	935.0	13360.0	4.0	unseen-between	1	1	163.92	2.98	False	False	163.9140982819954	166.89739513001405	[['y', 165.28864548896672]]	-2.0	unseen	False	True	1.3686454889667343	2.9832968480186537	1.0	36.0	446198.2342	False		False			
03	ses-019	38	images_fmri/bubble/bubble_04s.jpg	seen	1060	89	4	None	208.0	3132.0	4.0	seen-within	2	1	168.39	2.98	False	True	168.38375898601953	171.36361987498822	[['b', 169.2723756119958]]	2.0	seen	False	True	0.8823756119958261	2.9798608889686875	1.0	37.0	446202.7039	False		False	0.0	125.14730000001146	28.0
03	ses-019	39	images_fmri/hamburger/hamburger_04s.jpg	unseen	3580	299	4	None	741.0	10622.0	4.0	unseen-within	1	1	172.86	2.98	True	False	172.86642838199623	175.82958084600978	[['a', 175.37727909797104]]	-2.0	unseen	False	True	2.517279097971027	2.9631524640135467	1.0	38.0	446207.1866	False		False			
03	ses-019	40	images_fmri/walker1/walker1_06s.jpg	seen	8250	688	6	None	1774.0	25012.0	6.0	seen-between	2	1	177.32999999999996	2.98	True	False	177.33244690397987	180.31363477400737	[['a', 178.91676918999292]]	-2.0	unseen	True	True	1.586769189992964	2.9811878700274974	1.0	39.0	446211.6526	False		False	7.0	0.0	291.0
03	ses-019	41	images_fmri/spider/spider_04s.jpg	unseen	7060	589	4	None	1514.0	21408.0	4.0	unseen-within	1	1	181.8	2.98	False	False	181.80134291999275	184.78073216497432	[['y', 183.15539424098097]]	-2.0	unseen	False	True	1.3553942409809565	2.979389244981576	1.0	40.0	446216.1215	False		False			
03	ses-019	42	images_fmri/thermostat/thermostat_04s.jpg	unseen	7660	639	4	None	1649.0	23285.0	4.0	unseen-between	1	1	186.27	2.98	False	True	186.26676306297304	189.24594753497516	[['a', 188.52960564399837]]	1.0	seen	True	False	2.259605643998356	2.979184472002089	1.0	41.0	446220.5869	False		False			
03	ses-019	43	images_fmri/kimono/kimono_04s.jpg	unseen	4132	345	4	None	874.0	12510.0	4.0	unseen-within	1	1	190.74	2.98	False	True	190.73449880297997	193.71453837997976	[['y', 192.63121606997447], ['y', 193.05394336901372]]	-2.0	unseen	False	True	1.8912160699744616	2.980039576999843	1.0	42.0	446225.0546	False		False			
03	ses-019	44	images_fmri/spider/spider_04s.jpg	seen	7060	589	4	None	1514.0	21408.0	4.0	seen-within	2	1	195.21	2.98	False	True	195.21603103197413	198.18362320197048	[['b', 196.0374519500183]]	2.0	seen	False	True	0.8274519500182862	2.967592169996351	1.0	43.0	446229.5362	False		False	0.0	13.414699999964796	3.0
03	ses-019	45	images_fmri/poster/poster_06s.jpg	seen	5874	490	6	None	1230.0	17495.0	6.0	seen-between-within	3	1	199.68	2.98	False	True	199.68446826998843	202.6662322750199	[['b', 200.5173490960151]]	2.0	seen	False	True	0.8373490960150889	2.9817640050314367	1.0	44.0	446234.0046	False		False	0.0	102.81890000001295	23.0
03	ses-019	46	images_fmri/snowboard/snowboard_06s.jpg	seen	6918	577	6	None	1482.0	20995.0	6.0	seen-within-between	3	1	204.15	2.98	True	True	204.1499008340179	207.1299872319796	[['x', 206.38027849100763]]	-1.0	unseen	True	False	2.230278491007624	2.9800863979617134	1.0	45.0	446238.4700	False		False	7.0	0.0	135.0
03	ses-019	47	images_fmri/kimono/kimono_04s.jpg	seen	4132	345	4	None	874.0	12510.0	4.0	seen-within	2	1	208.62	2.98	True	False	208.6171420890023	211.60102067596745	[['x', 209.5515539799817]]	2.0	seen	False	True	0.931553979981686	2.9838785869651474	1.0	46.0	446242.9373	False		False	0.0	17.882700000016484	4.0
03	ses-019	48	images_fmri/cactus/cactus_06s.jpg	seen	1218	102	6	None	236.0	3511.0	6.0	seen-between	2	1	213.09	2.98	True	False	213.08401374798268	216.06726595398504	[['a', 214.15148908499395]]	-2.0	unseen	True	True	1.0614890849939511	2.983252206002362	1.0	47.0	446247.4041	False		False	7.0	0.0	317.0
03	ses-019	49	images_fmri/ball/ball_06s.jpg	seen	318	27	6	None	60.0	885.0	6.0	seen-within-between	3	1	217.56	2.98	False	True	217.562768623	220.5325497969752	[['x', 220.59486786299385]]	-1.0	unseen	True	False	3.034867862993849	2.969781173975207	1.0	48.0	446251.8829	False		False	7.0	0.0	274.0
03	ses-019	50	images_fmri/floss/floss_06s.jpg	seen	3018	252	6	None	618.0	8918.0	6.0	seen-within-between	3	1	222.03	2.98	False	True	222.0301746450132	225.0129364840104	[['x', 224.34160297201015]]	-1.0	unseen	True	False	2.3116029720101494	2.982761838997249	1.0	49.0	446256.3503	False		False	7.0	0.0	50.0
03	ses-019	51	images_fmri/wand/wand_04s.jpg	seen	8320	694	4	None	1781.0	25107.0	4.0	seen-within	2	1	226.5	2.98	True	True	226.49671817797932	229.47918787802337	[['b', 227.5419670349802]]	2.0	seen	False	True	1.041967034980189	2.982469700044021	1.0	50.0	446260.8168	False		False	0.0	223.49579999997513	50.0
03	ses-019	52	images_fmri/hamburger/hamburger_04s.jpg	seen	3580	299	4	None	741.0	10622.0	4.0	seen-within	2	1	230.97	2.98	False	False	230.96764107298804	233.95065590000013	[['x', 231.81927604798693]]	2.0	seen	False	True	0.8492760479869332	2.9830148270120844	1.0	51.0	446265.2878	False		False	0.0	58.101199999975506	13.0
03	ses-019	53	images_fmri/otter/otter_04n.jpg	unseen	5188	433	4	None	1086.0	15456.0	4.0	unseen-within	1	1	235.44	2.98	False	False	235.43342026596656	238.41349560098024	[['b', 237.24993435200304]]	-1.0	unseen	False	False	1.80993435200304	2.98007533501368	1.0	52.0	446269.7535	False		False			
03	ses-019	54	images_fmri/tag/tag_04s.jpg	unseen	7528	628	4	None	1617.0	22829.0	4.0	unseen-between	1	1	239.91	2.98	False	False	239.91500123601872	242.8776960039977	[['y', 241.91618236299837]]	-2.0	unseen	False	True	2.006182362998373	2.9626947679789737	1.0	53.0	446274.2351	False		False			
03	ses-019	55	images_fmri/cork/cork_04s.jpg	seen	2032	170	4	None	410.0	5889.0	4.0	seen-within	2	1	244.38	2.98	True	False	244.38088952499675	247.36523646401477	[['x', 245.30327639897587]]	2.0	seen	False	True	0.9232763989758724	2.984346939017996	1.0	54.0	446278.7010	False		False	0.0	138.5791999999783	31.0
03	ses-019	56	images_fmri/stalagmite/stalagmite_06s.jpg	seen	7158	597	6	None	1535.0	21695.0	6.0	seen-within-between	3	1	248.85	2.98	True	True	248.8500767090009	251.8288958090125	[['y', 250.74219526996603], ['b', 251.75566572597018]]	1.0	seen	False	False	1.892195269966038	2.9788191000116058	1.0	55.0	446283.1702	False		False	7.0	0.0	305.0
03	ses-019	57	images_fmri/elephant/elephant_04n.jpg	unseen	2764	231	4	None	555.0	8046.0	4.0	unseen-within	1	1	253.32	2.98	False	False	253.3114078519866	256.2952502670232	[['a', 256.0126784259919], ['b', 256.4142588649993]]	1.0	seen	True	False	2.6926784259919145	2.9838424150366336	1.0	56.0	446287.6315	False		False			
03	ses-019	58	images_fmri/spinach/spinach_06s.jpg	seen	7074	590	6	None	1516.0	21437.0	6.0	seen-within-between	3	1	257.79	2.98	False	True	257.777347849973	260.7615461120149	[['x', 260.65514767798595]]	-1.0	unseen	True	False	2.865147677985931	2.9841982620419003	1.0	57.0	446292.0975	False		False	7.0	0.0	175.0
03	ses-019	59	images_fmri/christmas_tree/christmas_tree_06s.jpg	seen	1758	147	6	None	342.0	4938.0	6.0	seen-between	2	1	262.26	2.98	True	True	262.2625100410078	265.2272629130166	[['x', 264.6390305219684]]	-1.0	unseen	True	False	2.3790305219683887	2.9647528720088303	1.0	58.0	446296.5826	False		False	7.0	0.0	286.0
03	ses-019	60	images_fmri/christmas_tree/christmas_tree_06s.jpg	seen	1758	147	6	None	342.0	4938.0	6.0	seen-between-within	3	1	266.73	2.98	True	True	266.73130321200006	269.71426528302254	[['b', 267.56588382599875]]	2.0	seen	False	True	0.8358838259987351	2.9829620710224845	1.0	59.0	446301.0514	False		False	0.0	4.468799999973271	1.0
