subject	session	TrialNumber	image_path	condition	image_nr	category_nr	exemplar_nr	test_image_nr	things_category_nr	things_image_nr	things_exemplar_nr	subcondition	repetition	run	onset	duration	response_mapping_flip_h	response_mapping_flip_v	onset_flip	offset_flip	keypresses	response	response_txt	error	response_confidence	response_time	duration_flip	ran	order	session_trial_time	atypical	atypical_log	exclude_session	delay_days	delay_seconds	trials_since_lastrep
6	ses-021	1	images_fmri/aircraft_carrier/aircraft_carrier_06s.jpg	seen	30	3	6	None	10.0	132.0	6.0	seen-between-between	3	1	3.0	2.98	False	False	2.9995194979710504	5.965969715965912	[['x', 5.1561562909628265]]	2.0	seen	False	True	2.1561562909628265	2.9664502179948613	1.0	0.0	510931.0464	True	_subcondition:seen-between-between_repetition:3	True	7.0	0.0	350.0
6	ses-021	2	images_fmri/record/record_06s.jpg	seen	6198	517	6	None	1296.0	18436.0	6.0	seen-between	2	1	7.47	2.98	True	False	7.466535251005553	10.449258517997803	[['a', 9.224098715989385]]	-2.0	unseen	True	True	1.754098715989385	2.9827232669922523	1.0	1.0	510935.5134	False		True	14.0	0.0	596.0
6	ses-021	3	images_fmri/clipboard/clipboard_06s.jpg	seen	1806	151	6	None	356.0	5153.0	6.0	seen-between	2	1	11.94	2.98	False	True	11.933235670963768	14.916206332971342	[['y', 15.003147331997752]]	-2.0	unseen	True	True	3.0631473319977527	2.982970662007574	1.0	2.0	510939.9801	True	_condition:seen_subcondition:seen-between_repetition:2_error:True	True	7.0	0.0	21.0
6	ses-021	4	images_fmri/lime/lime_06s.jpg	seen	4398	367	6	None	931.0	13296.0	6.0	seen-between	2	1	16.41	2.98	False	True	16.39917481300654	19.38242562196683	[['x', 18.645217333978508]]	-1.0	unseen	True	False	2.2352173339785075	2.9832508089602925	1.0	3.0	510944.446	False		True	14.0	0.0	535.0
6	ses-021	5	images_fmri/sloth/sloth_06s.jpg	seen	6858	572	6	None	1472.0	20856.0	6.0	seen-between	2	1	20.88	2.98	True	True	20.86611142900074	23.84896093595308	[['a', 22.443414192995988]]	-2.0	unseen	True	True	1.5634141929959888	2.982849506952334	1.0	4.0	510948.913	False		True	14.0	0.0	627.0
6	ses-021	6	images_fmri/bucket/bucket_06n.jpg	seen	1074	90	6	None	210.0	3158.0	6.0	seen-within-between	3	1	25.35	2.98	False	True	25.349161066988017	28.315758373995777	[['b', 26.6570072780014]]	2.0	seen	False	True	1.3070072780014002	2.96659730700776	1.0	5.0	510953.396	True	_condition:seen_subcondition:seen-within-between_repetition:3_error:False	True	7.0	0.0	288.0
6	ses-021	7	images_fmri/sundial/sundial_06s.jpg	unseen	7362	614	6	None	1584.0	22366.0	6.0	unseen-within	1	1	29.82	2.98	False	False	29.815917144005653	32.79875049699331	[['y', 31.60196217300836]]	-2.0	unseen	False	True	1.7819621730083597	2.9828333529876545	1.0	6.0	510957.8628	False		True			
6	ses-021	8	images_fmri/tadpole/tadpole_06s.jpg	seen	7518	627	6	None	1615.0	22806.0	6.0	seen-between	2	1	34.29	2.98	True	True	34.28202301199781	37.26557577197673	[['y', 36.630293203983456], ['b', 37.270167843962554]]	1.0	seen	False	False	2.3402932039834567	2.98355275997892	1.0	7.0	510962.3289	True	_condition:seen_subcondition:seen-between_repetition:2_error:False	True	7.0	0.0	269.0
6	ses-021	9	images_fmri/lime/lime_06s.jpg	seen	4398	367	6	None	931.0	13296.0	6.0	seen-between-within	3	1	38.76	2.98	False	False	38.7485756399692	41.73459465400083	[['x', 39.64026065397775]]	2.0	seen	False	True	0.88026065397775	2.9860190140316263	1.0	8.0	510966.7954	False		True	0.0	22.349400000006423	5.0
6	ses-021	10	images_fmri/train/train_06s.jpg	unseen	7926	661	6	None	1699.0	23973.0	6.0	unseen-within	1	1	43.23	2.98	True	False	43.22273572697304	46.20129130600253	[['a', 45.424940892960876]]	-2.0	unseen	False	True	2.19494089296088	2.9785555790294893	1.0	9.0	510971.2696	False		True			
6	ses-021	11	images_fmri/cardigan/cardigan_06s.jpg	seen	1422	119	6	None	274.0	4023.0	6.0	seen-between	2	1	47.7	2.98	True	True	47.70043408195488	50.67181855998933	[['x', 50.956823821004946]]	-1.0	unseen	True	False	3.256823821004943	2.971384478034452	1.0	10.0	510975.7473	False		True	14.0	0.0	441.0
6	ses-021	12	images_fmri/chest1/chest1_06s.jpg	seen	1650	138	6	None	320.0	4646.0	6.0	seen-within-between	3	1	52.17	2.98	False	False	52.16765196697088	55.15253242995823	[['y', 54.28785940899979]]	-2.0	unseen	True	True	2.1178594089997915	2.9848804629873484	1.0	11.0	510980.2145	False		True	14.0	0.0	379.0
6	ses-021	13	images_fmri/canoe/canoe_06s.jpg	seen	1386	116	6	None	263.0	3866.0	6.0	seen-within-between	3	1	56.64	2.98	True	False	56.63356103695696	59.62109387095552	[['a', 59.71611658198526]]	-2.0	unseen	True	True	3.0761165819852607	2.987532833998557	1.0	12.0	510984.6804	False		True	14.0	0.0	468.0
6	ses-021	14	images_fmri/manatee/manatee_06s.jpg	seen	4578	382	6	None	965.0	13755.0	6.0	seen-between	2	1	61.11	2.98	True	True	61.1000965309795	64.08540162595455	[['b', 62.81995850196108]]	2.0	seen	False	True	1.7099585019610828	2.985305094975047	1.0	13.0	510989.1469	True	_condition:seen_subcondition:seen-between_repetition:2_error:False	True	7.0	0.0	110.0
6	ses-021	15	images_fmri/fondue/fondue_06s.jpg	seen	3054	255	6	None	627.0	9050.0	6.0	seen-within-between	3	1	65.58	2.98	False	True	65.58439470099984	68.54988917097216	[['x', 68.97859155799961]]	-1.0	unseen	True	False	3.398591557999609	2.965494469972328	1.0	14.0	510993.6312	True	_condition:seen_subcondition:seen-within-between_repetition:3_error:True	True	7.0	0.0	225.0
6	ses-021	16	images_fmri/grapefruit/grapefruit_06s.jpg	seen	3402	284	6	None	704.0	10093.0	6.0	seen-between	2	1	70.05	2.98	False	True	70.05202291399473	73.01630942797055	[['y', 71.21781657298561]]	-2.0	unseen	True	True	1.1678165729856147	2.964286513975821	1.0	15.0	510998.0989	False		True	14.0	0.0	575.0
6	ses-021	17	images_fmri/peach/peach_06s.jpg	seen	5406	451	6	None	1130.0	16093.0	6.0	seen-between-between	3	1	74.52	2.98	True	True	74.52073658595327	77.5002482009586	[['b', 75.87357067497214]]	2.0	seen	False	True	1.353570674972147	2.979511615005322	1.0	16.0	511002.5676	True	_subcondition:seen-between-between_repetition:3	True	7.0	0.0	88.0
6	ses-021	18	images_fmri/lectern/lectern_06s.jpg	seen	4278	357	6	None	909.0	13003.0	6.0	seen-between	2	1	78.99	2.98	False	True	78.98697112500668	81.96756769099738	[['y', 81.26992116199108]]	-2.0	unseen	True	True	2.2799211619910835	2.9805965659907088	1.0	17.0	511007.0338	False		True	14.0	0.0	467.0
6	ses-021	19	images_fmri/plum/plum_06s.jpg	seen	5742	479	6	None	1204.0	17110.0	6.0	seen-between	2	1	83.46	2.98	False	False	83.4502952019684	86.43274863797706	[['y', 85.11810387595324]]	-2.0	unseen	True	True	1.6581038759532447	2.9824534360086545	1.0	18.0	511011.4971	False		True	14.0	0.0	432.0
6	ses-021	20	images_fmri/cymbal/cymbal_06s.jpg	unseen	2334	195	6	None	469.0	6796.0	6.0	unseen-between	1	1	87.92999999999998	2.98	False	False	87.93283674295526	90.89937909296714	[['y', 89.88083041500067]]	-2.0	unseen	False	True	1.950830415000695	2.9665423500118777	1.0	19.0	511015.9797	False		True			
6	ses-021	21	images_fmri/lock/lock_06s.jpg	seen	4494	375	6	None	941.0	13435.0	6.0	seen-within-between	3	1	92.4	2.98	False	False	92.39990859199315	95.38364000298316	[['y', 95.23951289098477]]	-2.0	unseen	True	True	2.839512890984764	2.9837314109900035	1.0	20.0	511020.4468	False		True	14.0	0.0	713.0
6	ses-021	22	images_fmri/tadpole/tadpole_06s.jpg	seen	7518	627	6	None	1615.0	22806.0	6.0	seen-between-within	3	1	96.87	2.98	True	False	96.86592072196072	99.8501465569716	[['x', 97.84148079098668]]	2.0	seen	False	True	0.971480790986675	2.984225835010875	1.0	21.0	511024.9128	True	_subcondition:seen-between-within_repetition:3	True	0.0	62.58389999996871	14.0
6	ses-021	23	images_fmri/mailbox/mailbox_06s.jpg	seen	4554	380	6	None	961.0	13691.0	6.0	seen-within-between	3	1	101.34	2.98	True	True	101.33815046498783	104.31637041596696	[['a', 103.09883067797637]]	-2.0	unseen	True	True	1.7588306779763627	2.97821995097911	1.0	22.0	511029.385	False		True	14.0	0.0	549.0
6	ses-021	24	images_fmri/birdhouse/birdhouse_06s.jpg	seen	666	56	6	None	132.0	2026.0	6.0	seen-within-between	3	1	105.81	2.98	True	True	105.80306319100782	108.7825309879845	[['b', 107.30960185197182]]	2.0	seen	False	True	1.4996018519718175	2.979467796976678	1.0	23.0	511033.8499	False		True	14.0	0.0	628.0
6	ses-021	25	images_fmri/avocado/avocado_06s.jpg	unseen	246	21	6	None	44.0	609.0	6.0	unseen-within	1	1	110.28	2.98	False	False	110.28623706800865	113.24886081198927	[['y', 112.85864664800465]]	-2.0	unseen	False	True	2.57864664800465	2.9626237439806573	1.0	24.0	511038.3331	False		True			
6	ses-021	26	images_fmri/football_helmet/football_helmet_06s.jpg	unseen	3066	256	6	None	631.0	9105.0	6.0	unseen-within	1	1	114.75	2.98	True	False	114.75157767499331	117.73319452197757	[['a', 117.20059526700061]]	-2.0	unseen	False	True	2.450595267000608	2.9816168469842523	1.0	25.0	511042.7984	False		True			
6	ses-021	27	images_fmri/train/train_06s.jpg	seen	7926	661	6	None	1699.0	23973.0	6.0	seen-within	2	1	119.22	2.98	False	False	119.21511510998243	122.20482758199796	[['x', 119.99124302098062]]	2.0	seen	False	True	0.77124302098062	2.989712472015526	1.0	26.0	511047.262	False		True	0.0	75.99239999998827	17.0
6	ses-021	28	images_fmri/doormat/doormat_06s.jpg	seen	2538	212	6	None	512.0	7420.0	6.0	seen-within-between	3	1	123.69	2.98	True	True	123.68551279295934	126.66679287300212	[['b', 124.95369170996128]]	2.0	seen	False	True	1.2636917099612788	2.9812800800427794	1.0	27.0	511051.7324	True	_condition:seen_subcondition:seen-within-between_repetition:3_error:False	True	7.0	0.0	101.0
6	ses-021	29	images_fmri/touchpad/touchpad_06s.jpg	seen	7878	657	6	None	1692.0	23875.0	6.0	seen-between	2	1	128.16	2.98	True	False	128.15299973799847	131.13167546095792	[['x', 129.79448231199058]]	2.0	seen	False	True	1.6344823119905811	2.978675722959452	1.0	28.0	511056.1998	False		True	14.0	0.0	471.0
6	ses-021	30	images_fmri/goalpost/goalpost_06s.jpg	seen	3294	275	6	None	684.0	9794.0	6.0	seen-between	2	1	132.63	2.98	False	False	132.63523121800972	135.60386679100338	[['a', 135.61664765095338]]	1.0	seen	False	False	2.986647650953387	2.968635572993662	1.0	29.0	511060.6821	True	_condition:seen_subcondition:seen-between_repetition:2_error:False	True	7.0	0.0	331.0
6	ses-021	31	images_fmri/helicopter/helicopter_06s.jpg	seen	3738	312	6	None	776.0	11104.0	6.0	seen-within-between	3	1	137.1	2.98	False	False	137.09942660300294	140.0817317479523	[['y', 139.76072001096327]]	-2.0	unseen	True	True	2.6607200109632743	2.9823051449493505	1.0	30.0	511065.1463	False		True	14.0	0.0	491.0
6	ses-021	32	images_fmri/towel/towel_06s.jpg	unseen	7890	658	6	None	1693.0	23887.0	6.0	unseen-between	1	1	141.57	2.98	True	True	141.56481523200637	144.54922340199118	[['a', 143.9942294189823]]	-2.0	unseen	False	True	2.424229418982293	2.984408169984817	1.0	31.0	511069.6117	False		True			
6	ses-021	33	images_fmri/handcuff/handcuff_06s.jpg	seen	3642	304	6	None	747.0	10700.0	6.0	seen-within-between	3	1	146.04	2.98	False	True	146.03118547296617	149.0145325610065	[['y', 148.6012848909595]]	-2.0	unseen	True	True	2.561284890959513	2.9833470880403183	1.0	32.0	511074.078	False		True	14.0	0.0	436.0
6	ses-021	34	images_fmri/moth/moth_06n.jpg	seen	4914	410	6	None	1024.0	14590.0	6.0	seen-between	2	1	150.51	2.98	False	False	150.4977263470064	153.4812819249928	[['y', 152.7290904049878]]	-2.0	unseen	True	True	2.21909040498781	2.983555577986408	1.0	33.0	511078.5446	False		True	14.0	0.0	441.0
6	ses-021	35	images_fmri/sock/sock_06s.jpg	seen	6942	579	6	None	1490.0	21093.0	6.0	seen-within-between	3	1	154.98	2.98	True	True	154.98154783900827	157.94991367397597	[['x', 158.39620509697124]]	-1.0	unseen	True	False	3.416205096971254	2.968365834967699	1.0	34.0	511083.0284	True	_condition:seen_subcondition:seen-within-between_repetition:3_error:True	True	7.0	0.0	48.0
6	ses-021	36	images_fmri/lawnmower/lawnmower_06s.jpg	unseen	4266	356	6	None	906.0	12961.0	6.0	unseen-within	1	1	159.45	2.98	True	True	159.44946976396022	162.43490349897183	[['a', 160.79789929196704]]	-2.0	unseen	False	True	1.3478992919670532	2.985433735011611	1.0	35.0	511087.4963	False		True			
6	ses-021	37	images_fmri/floss/floss_06s.jpg	seen	3018	252	6	None	618.0	8918.0	6.0	seen-between	2	1	163.92	2.98	False	False	163.91533862997312	166.89813406497706	[['y', 166.43732018198352]]	-2.0	unseen	True	True	2.517320181983536	2.9827954350039363	1.0	36.0	511091.9622	False		True	14.0	0.0	645.0
6	ses-021	38	images_fmri/cardigan/cardigan_06s.jpg	seen	1422	119	6	None	274.0	4023.0	6.0	seen-between-within	3	1	168.39	2.98	True	False	168.38671582500683	171.36712318996433	[['x', 169.20181303395657]]	2.0	seen	False	True	0.8118130339565823	2.9804073649575	1.0	37.0	511096.4336	False		True	0.0	120.6863000000012	27.0
6	ses-021	39	images_fmri/odometer/odometer_06s.jpg	seen	5142	429	6	None	1072.0	15241.0	6.0	seen-within-between-within-between	5	1	172.86	2.98	True	True	172.84941083198646	175.83603106695227	[['a', 175.93318443599856]]	-2.0	unseen	True	True	3.0731844359985416	2.9866202349658124	1.0	38.0	511100.8963	True	_subcondition:seen-within-between-within-between_repetition:5	True	7.0	0.0	148.0
6	ses-021	40	images_fmri/thimble/thimble_06n.jpg	unseen	7674	640	6	None	1650.0	23303.0	6.0	unseen-within	1	1	177.32999999999996	2.98	True	True	177.33168828499038	180.29789171699667	[['a', 180.1938064880087]]	-2.0	unseen	False	True	2.8638064880087484	2.966203432006296	1.0	39.0	511105.3785	False		True			
6	ses-021	41	images_fmri/omelet/omelet_06s.jpg	seen	5166	431	6	None	1077.0	15313.0	6.0	seen-between	2	1	181.8	2.98	True	True	181.79729512595804	184.7803533829865	[['a', 184.0949381570099]]	-2.0	unseen	True	True	2.294938157009881	2.9830582570284605	1.0	40.0	511109.8441	False		True	14.0	0.0	724.0
6	ses-021	42	images_fmri/fondue/fondue_06s.jpg	seen	3054	255	6	None	627.0	9050.0	6.0	seen-within-between-within	4	1	186.27	2.98	True	True	186.26525155699343	189.25227858795552	[['b', 187.47490169195225]]	2.0	seen	False	True	1.2049016919522444	2.9870270309620537	1.0	41.0	511114.3121	True	_subcondition:seen-within-between-within_repetition:4	True	0.0	120.68089999997756	27.0
6	ses-021	43	images_fmri/sock/sock_06s.jpg	seen	6942	579	6	None	1490.0	21093.0	6.0	seen-within-between-within	4	1	190.74	2.98	False	False	190.7324357850012	193.71670523600187	[['x', 191.61026493599638]]	2.0	seen	False	True	0.8702649359963743	2.984269451000728	1.0	42.0	511118.7793	True	_subcondition:seen-within-between-within_repetition:4	True	0.0	35.75089999998454	8.0
6	ses-021	44	images_fmri/mascara/mascara_06s.jpg	seen	4662	389	6	None	979.0	13952.0	6.0	seen-between	2	1	195.21	2.98	False	True	195.21701833500995	198.1824480869691	[['y', 198.12482938996982]]	-2.0	unseen	True	True	2.9148293899698103	2.965429751959164	1.0	43.0	511123.2639	False		True	14.0	0.0	635.0
6	ses-021	45	images_fmri/thermostat/thermostat_06s.jpg	unseen	7662	639	6	None	1649.0	23287.0	6.0	unseen-between	1	1	199.68	2.98	False	True	199.6809145739535	202.6498876569676	[['y', 202.0599593889783]]	-2.0	unseen	False	True	2.379959388978307	2.9689730830141343	1.0	44.0	511127.7278	False		True			
6	ses-021	46	images_fmri/hamster/hamster_06s.jpg	unseen	3618	302	6	None	744.0	10660.0	6.0	unseen-within	1	1	204.15	2.98	False	True	204.1473683859804	207.12969718995737	[['y', 205.3818012920092]]	-2.0	unseen	False	True	1.2318012920091803	2.9823288039769977	1.0	45.0	511132.1942	False		True			
6	ses-021	47	images_fmri/touchpad/touchpad_06s.jpg	seen	7878	657	6	None	1692.0	23875.0	6.0	seen-between-within	3	1	208.62	2.98	True	False	208.6188180819736	211.5971687340061	[['x', 209.90099370596]]	2.0	seen	False	True	1.280993705959986	2.978350652032532	1.0	46.0	511136.6657	False		True	0.0	80.46590000001015	18.0
6	ses-021	48	images_fmri/butterfly/butterfly_06s.jpg	seen	1194	100	6	None	230.0	3425.0	6.0	seen-within-within-between-within-between	6	1	213.09	2.98	True	False	213.0842075019609	216.0686003279989	[['a', 216.13433555798838]]	-2.0	unseen	True	True	3.044335557988376	2.984392826037947	1.0	47.0	511141.1311	True	_subcondition:seen-within-within-between-within-between_repetition:6	True	7.0	0.0	70.0
6	ses-021	49	images_fmri/penguin/penguin_06s.jpg	seen	5490	458	6	None	1146.0	16299.0	6.0	seen-within-between	3	1	217.56	2.98	True	False	217.5638077189797	220.5297307559522	[['a', 220.36277486698236]]	-2.0	unseen	True	True	2.802774866982361	2.9659230369725265	1.0	48.0	511145.6107	False		True	14.0	0.0	603.0
6	ses-021	50	images_fmri/bread/bread_06s.jpg	seen	978	82	6	None	195.0	2949.0	6.0	seen-within-between	3	1	222.03	2.98	False	True	222.03084911796032	225.01395443599904	[['y', 224.36962950695306]]	-2.0	unseen	True	True	2.3396295069530595	2.9831053180387244	1.0	49.0	511150.0777	False		True	14.0	0.0	469.0
6	ses-021	51	images_fmri/sloth/sloth_06s.jpg	seen	6858	572	6	None	1472.0	20856.0	6.0	seen-between-within	3	1	226.5	2.98	True	False	226.5014217349817	229.48218626895687	[['x', 227.47097798698815]]	2.0	seen	False	True	0.970977986988146	2.9807645339751616	1.0	50.0	511154.5483	False		True	0.0	205.6353000000236	46.0
6	ses-021	52	images_fmri/aircraft_carrier/aircraft_carrier_06s.jpg	seen	30	3	6	None	10.0	132.0	6.0	seen-between-between-within	4	1	230.97	2.98	True	True	230.96331858896883	233.94733863999136	[['b', 232.00271213095402]]	2.0	seen	False	True	1.0327121309540246	2.984020051022526	1.0	51.0	511159.0102	True	_subcondition:seen-between-between-within_repetition:4	True	0.0	227.9638000000268	51.0
6	ses-021	53	images_fmri/avocado/avocado_06s.jpg	seen	246	21	6	None	44.0	609.0	6.0	seen-within	2	1	235.44	2.98	False	True	235.43506577896187	238.41216559900204	[['b', 236.6627651169547]]	2.0	seen	False	True	1.2227651169546905	2.9770998200401664	1.0	52.0	511163.4819	False		True	0.0	125.1488000000245	28.0
6	ses-021	54	images_fmri/punching_bag/punching_bag_06s.jpg	seen	6030	503	6	None	1257.0	17907.0	6.0	seen-within-between	3	1	239.91	2.98	False	True	239.9161003899644	242.88024518697057	[['y', 242.22576847398886]]	-2.0	unseen	True	True	2.315768473988868	2.9641447970061563	1.0	53.0	511167.9629	False		True	14.0	0.0	684.0
6	ses-021	55	images_fmri/cage/cage_06s.jpg	unseen	1230	103	6	None	237.0	3523.0	6.0	unseen-within	1	1	244.38	2.98	False	False	244.3817288869759	247.3631343090092	[['y', 246.2674927599728]]	-2.0	unseen	False	True	1.8874927599728155	2.9814054220332764	1.0	54.0	511172.4286	False		True			
6	ses-021	56	images_fmri/snorkel/snorkel_06s.jpg	seen	6906	576	6	None	1479.0	20957.0	6.0	seen-within-between	3	1	248.85	2.98	False	True	248.8496092029964	251.82967641897267	[['y', 251.50059150200104]]	-2.0	unseen	True	True	2.650591502001049	2.9800672159763053	1.0	55.0	511176.8965	False		True	14.0	0.0	626.0
6	ses-021	57	images_fmri/hamster/hamster_06s.jpg	seen	3618	302	6	None	744.0	10660.0	6.0	seen-within	2	1	253.32	2.98	False	False	253.31864812795536	256.29523915197933	[['x', 254.98168855300173]]	2.0	seen	False	True	1.6616885530017385	2.9765910240239464	1.0	56.0	511181.3655	False		True	0.0	49.17129999998724	11.0
6	ses-021	58	images_fmri/lamp/lamp_06s.jpg	unseen	4218	352	6	None	892.0	12774.0	6.0	unseen-between	1	1	257.79	2.98	True	False	257.77994747500634	260.76168713200605	[['a', 259.62903430499136]]	-2.0	unseen	False	True	1.839034304991344	2.981739656999707	1.0	57.0	511185.8268	False		True			
6	ses-021	59	images_fmri/battery/battery_06s.jpg	seen	450	38	6	None	98.0	1474.0	6.0	seen-within-between-within-between	5	1	262.26	2.98	True	False	262.2628564930056	265.2281533239875	[['x', 264.1533122219844]]	2.0	seen	False	True	1.893312221984388	2.96529683098197	1.0	58.0	511190.3097	True	_subcondition:seen-within-between-within-between_repetition:5	True	7.0	0.0	148.0
6	ses-021	60	images_fmri/record/record_06s.jpg	seen	6198	517	6	None	1296.0	18436.0	6.0	seen-between-within	3	1	266.73	2.98	True	False	266.7332355660037	269.7159046489978	[['x', 267.90150823199656]]	2.0	seen	False	True	1.1715082319965404	2.982669082994107	1.0	59.0	511194.7801	False		True	0.0	259.2666999999783	58.0
