subject	session	TrialNumber	image_path	condition	image_nr	category_nr	exemplar_nr	test_image_nr	things_category_nr	things_image_nr	things_exemplar_nr	subcondition	repetition	run	onset	duration	response_mapping_flip_h	response_mapping_flip_v	onset_flip	offset_flip	keypresses	response	response_txt	error	response_confidence	response_time	duration_flip	ran	order	session_trial_time	atypical	atypical_log	exclude_session	delay_days	delay_seconds	trials_since_lastrep
02	ses-013	1	images_fmri/jellyfish/jellyfish_04s.jpg	unseen	4012	335	4	None	846.0	12094.0	4.0	unseen-within	1	2	3.0	2.98	True	True	2.999598979949951	5.966159105300903	[['x', 5.079590082168579]]	-1.0	unseen	False	False	2.079590082168579	2.966560125350952	1.0	0.0	1627483838.8880	False		False			
02	ses-013	2	images_fmri/thimble/thimble_04n.jpg	unseen	7672	640	4	None	1650.0	23301.0	4.0	unseen-between	1	2	7.47	2.98	True	False	7.46648907661438	10.449379920959473	[['b', 9.46369194984436]]	-1.0	unseen	False	False	1.9936919498443608	2.9828908443450928	1.0	1.0	1627483843.3549	False		False			
02	ses-013	3	images_fmri/mushroom/mushroom_05n.jpg	seen	4985	416	5	None	1041.0	14830.0	5.0	seen-within-between	3	2	11.94	2.98	True	True	11.933046102523804	14.915946006774902	[['y', 13.253767967224121]]	1.0	seen	False	False	1.3137679672241216	2.982899904251098	1.0	2.0	1627483847.8214	False		False	7.0	0.0	97.0
02	ses-013	4	images_fmri/jellyfish/jellyfish_04s.jpg	seen	4012	335	4	None	846.0	12094.0	4.0	seen-within	2	2	16.41	2.98	True	True	16.402447938919067	19.38904500007629	[['b', 17.502811908721924]]	2.0	seen	False	True	1.0928119087219237	2.9865970611572266	1.0	3.0	1627483852.2908	False		False	0.0	13.4028000831604	3.0
02	ses-013	5	images_fmri/tag/tag_05s.jpg	seen	7529	628	5	None	1617.0	22830.0	5.0	seen-between	2	2	20.88	2.98	False	True	20.87397003173828	23.85133194923401	[['a', 22.67013192176819]]	1.0	seen	False	False	1.7901319217681897	2.9773619174957275	1.0	4.0	1627483856.7623	False		False	7.0	0.0	177.0
02	ses-013	6	images_fmri/carrot/carrot_04n.jpg	unseen	1444	121	4	None	278.0	4078.0	4.0	unseen-between	1	2	25.35	2.98	True	False	25.35408592224121	28.318161010742188	[['b', 27.02939009666443]]	-1.0	unseen	False	False	1.6793900966644273	2.964075088500977	1.0	5.0	1627483861.2425	False		False			
02	ses-013	7	images_fmri/coffee_pot/coffee_pot_05s.jpg	seen	1889	158	5	None	381.0	5488.0	5.0	seen-within-between	3	2	29.82	2.98	True	True	29.82314705848694	32.80088806152344	[['y', 31.896027088165283]]	1.0	seen	False	False	2.076027088165283	2.977741003036499	1.0	6.0	1627483865.7115	False		False	7.0	0.0	163.0
02	ses-013	8	images_fmri/popcorn/popcorn_04s.jpg	unseen	5824	486	4	None	1224.0	17414.0	4.0	unseen-between	1	2	34.29	2.98	True	True	34.289798974990845	37.26763391494751	[['y', 35.72216796875]]	1.0	seen	True	False	1.4321679687500009	2.977834939956665	1.0	7.0	1627483870.1782	False		False			
02	ses-013	9	images_fmri/goalpost/goalpost_05s.jpg	seen	3293	275	5	None	684.0	9793.0	5.0	seen-between-within	3	2	38.76	2.98	False	False	38.755083084106445	41.734039068222046	[['x', 40.45462203025818]]	2.0	seen	False	True	1.6946220302581807	2.9789559841156006	1.0	8.0	1627483874.6435	False		False	0.0	368.1270999908447	59.0
02	ses-013	10	images_fmri/girl/girl_04s.jpg	seen	3256	272	4	None	677.0	9698.0	4.0	seen-within	2	2	43.23	2.98	False	False	43.223042011260986	46.20543193817139	[['x', 44.185017108917236]]	2.0	seen	False	True	0.9550171089172396	2.9823899269104004	1.0	9.0	1627483879.1114	False		False	0.0	211.67809987068176	24.0
02	ses-013	11	images_fmri/whale/whale_04s.jpg	unseen	8404	701	4	None	1805.0	25428.0	4.0	unseen-within	1	2	47.7	2.98	True	False	47.70169591903687	50.66708302497864	[['b', 49.302653074264526]]	-1.0	unseen	False	False	1.6026530742645235	2.9653871059417725	1.0	10.0	1627483883.5901	False		False			
02	ses-013	12	images_fmri/toolbox/toolbox_05s.jpg	seen	7829	653	5	None	1678.0	23682.0	5.0	seen-between	2	2	52.17	2.98	True	True	52.17078304290772	55.150542974472046	[['y', 54.08008408546448]]	1.0	seen	False	False	1.910084085464476	2.979759931564331	1.0	11.0	1627483888.0592	False		False	7.0	0.0	311.0
02	ses-013	13	images_fmri/banana_split/banana_split_04s.jpg	seen	364	31	4	None	66.0	981.0	4.0	seen-within	2	2	56.64	2.98	False	True	56.63965010643005	59.62279295921326	[['b', 57.63519906997681]]	2.0	seen	False	True	0.995199069976806	2.983142852783203	1.0	12.0	1627483892.5280	False		False	0.0	377.07460021972656	61.0
02	ses-013	14	images_fmri/projector/projector_05s.jpg	seen	5969	498	5	None	1243.0	17678.0	5.0	seen-between	2	2	61.11	2.98	False	False	61.10395693778992	64.0832691192627	[['a', 63.45352911949158]]	1.0	seen	False	False	2.3435291194915777	2.9793121814727783	1.0	13.0	1627483896.9923	False		False	7.0	0.0	351.0
02	ses-013	15	images_fmri/soy_sauce/soy_sauce_04s.jpg	unseen	7000	584	4	None	1501.0	21236.0	4.0	unseen-within	1	2	65.58	2.98	False	False	65.57221794128418	68.55038499832153	[['b', 67.38537096977234]]	-1.0	unseen	False	False	1.8053709697723408	2.978167057037353	1.0	14.0	1627483901.4606	False		False			
02	ses-013	16	images_fmri/brownie/brownie_05s.jpg	seen	1037	87	5	None	205.0	3090.0	5.0	seen-between	2	2	70.05	2.98	True	False	70.05502200126648	73.01656198501587	[['b', 72.18499898910522]]	-1.0	unseen	True	False	2.1349989891052275	2.9615399837493896	1.0	15.0	1627483905.9434	False		False	7.0	0.0	298.0
02	ses-013	17	images_fmri/kettle/kettle_05s.jpg	seen	4109	343	5	None	869.0	12430.0	5.0	seen-between-within	3	2	74.52	2.98	True	True	74.52196788787842	77.50159192085266	[['b', 75.70184898376465]]	2.0	seen	False	True	1.1818489837646524	2.979624032974243	1.0	16.0	1627483910.4103	False		False	0.0	430.7216000556946	73.0
02	ses-013	18	images_fmri/gauze/gauze_05s.jpg	seen	3209	268	5	None	665.0	9539.0	5.0	seen-between	2	2	78.99	2.98	False	False	78.98301792144775	81.96659708023071	[['b', 80.90396308898926]]	-1.0	unseen	True	False	1.913963088989263	2.983579158782959	1.0	17.0	1627483914.8714	False		False	7.0	0.0	151.0
02	ses-013	19	images_fmri/headlamp/headlamp_04s.jpg	seen	3688	308	4	None	765.0	10955.0	4.0	seen-within	2	2	83.46	2.98	False	False	83.45064806938171	86.43425607681274	[['x', 84.66816997528076]]	2.0	seen	False	True	1.208169975280768	2.9836080074310303	1.0	18.0	1627483919.3390	False		False	0.0	318.9542999267578	48.0
02	ses-013	20	images_fmri/sonogram/sonogram_05s.jpg	seen	6989	583	5	None	1497.0	21182.0	5.0	seen-within-between	3	2	87.92999999999998	2.98	True	True	87.93675804138184	90.89946389198305	[['y', 90.60678791999817]]	1.0	seen	False	False	2.6767879199981905	2.9627058506011963	1.0	19.0	1627483923.8251	False		False	7.0	0.0	208.0
02	ses-013	21	images_fmri/stamp2/stamp2_05s.jpg	seen	7169	598	5	None	1537.0	21722.0	5.0	seen-within-between	3	2	92.4	2.98	True	True	92.4025011062622	95.3862850666046	[['b', 93.63405704498291]]	2.0	seen	False	True	1.2340570449829045	2.9837839603424072	1.0	20.0	1627483928.2909	False		False	7.0	0.0	322.0
02	ses-013	22	images_fmri/eyedropper/eyedropper_05s.jpg	seen	2813	235	5	None	567.0	8212.0	5.0	seen-within-between	3	2	96.87	2.98	True	True	96.87007689476012	99.84939289093018	[['x', 99.46602392196655]]	-1.0	unseen	True	False	2.596023921966548	2.979315996170044	1.0	21.0	1627483932.7585	False		False	7.0	0.0	90.0
02	ses-013	23	images_fmri/flower/flower_05s.jpg	seen	3029	253	5	None	620.0	8942.0	5.0	seen-between	2	2	101.34	2.98	False	True	101.3379909992218	104.3159430027008	[['x', 103.2566909790039]]	-1.0	unseen	True	False	1.9166909790039028	2.977952003479004	1.0	22.0	1627483937.2264	False		False	7.0	0.0	238.0
02	ses-013	24	images_fmri/lingerie/lingerie_04s.jpg	seen	4420	369	4	None	933.0	13323.0	4.0	seen-within	2	2	105.81	2.98	True	True	105.80451893806458	108.78368401527403	[['b', 106.82889199256897]]	2.0	seen	False	True	1.0188919925689677	2.9791650772094727	1.0	23.0	1627483941.6929	False		False	0.0	421.7734999656677	71.0
02	ses-013	25	images_fmri/strawberry/strawberry_04n.jpg	unseen	7288	608	4	None	1571.0	22185.0	4.0	unseen-between	1	2	110.28	2.98	True	True	110.2853479385376	113.24882197380066	[['a', 111.96696090698242]]	-2.0	unseen	False	True	1.6869609069824207	2.963474035263061	1.0	24.0	1627483946.1737	False		False			
02	ses-013	26	images_fmri/coffin/coffin_05s.jpg	seen	1901	159	5	None	384.0	5530.0	5.0	seen-between	2	2	114.75	2.98	False	False	114.75498509407043	117.73277401924132	[['a', 116.26137208938599]]	1.0	seen	False	False	1.5113720893859863	2.9777889251708984	1.0	25.0	1627483950.6434	False		False	7.0	0.0	113.0
02	ses-013	27	images_fmri/breadstick/breadstick_04s.jpg	unseen	1000	84	4	None	197.0	2983.0	4.0	unseen-within	1	2	119.22	2.98	False	True	119.2181680202484	122.19939494132996	[['a', 120.61110401153564]]	1.0	seen	True	False	1.3911040115356457	2.981226921081543	1.0	26.0	1627483955.1065	False		False			
02	ses-013	28	images_fmri/granite/granite_05s.jpg	seen	3365	281	5	None	701.0	10041.0	5.0	seen-between	2	2	123.69	2.98	False	True	123.68790292739868	126.66560411453248	[['a', 125.16042494773865]]	1.0	seen	False	False	1.4704249477386495	2.977701187133789	1.0	27.0	1627483959.5763	False		False	7.0	0.0	277.0
02	ses-013	29	images_fmri/waffle_iron/waffle_iron_04s.jpg	unseen	8236	687	4	None	1772.0	24982.0	4.0	unseen-within	1	2	128.16	2.98	True	False	128.15343809127808	131.13209891319275	[['b', 130.90695190429688]]	-1.0	unseen	False	False	2.7469519042968784	2.978660821914673	1.0	28.0	1627483964.0418	False		False			
02	ses-013	30	images_fmri/brace/brace_05s.jpg	seen	941	79	5	None	187.0	2830.0	5.0	seen-within-between	3	2	132.63	2.98	True	True	132.63472890853882	135.59847688674927	[['x', 135.36174702644348]]	-1.0	unseen	True	False	2.731747026443486	2.963747978210449	1.0	29.0	1627483968.5231	False		False	7.0	0.0	333.0
02	ses-013	31	images_fmri/overalls/overalls_04s.jpg	unseen	5200	434	4	None	1091.0	15524.0	4.0	unseen-within	1	2	137.1	2.98	True	False	137.10384893417358	140.08188199996948	[['b', 139.36263298988342]]	-1.0	unseen	False	False	2.2626329898834285	2.9780330657958984	1.0	30.0	1627483972.9922	False		False			
02	ses-013	32	images_fmri/wire/wire_05s.jpg	seen	8513	710	5	None	1829.0	25760.0	5.0	seen-within-between	3	2	141.57	2.98	False	True	141.57023906707764	144.5483729839325	[['a', 143.64812803268433]]	1.0	seen	False	False	2.078128032684333	2.9781339168548584	1.0	31.0	1627483977.4586	False		False	7.0	0.0	99.0
02	ses-013	33	images_fmri/easel/easel_04s.jpg	unseen	2692	225	4	None	543.0	7881.0	4.0	unseen-between	1	2	146.04	2.98	False	True	146.03614211082458	149.01475501060486	[['x', 147.9733109474182]]	-1.0	unseen	False	False	1.9333109474182208	2.978612899780273	1.0	32.0	1627483981.9245	False		False			
02	ses-013	34	images_fmri/coconut/coconut_04s.jpg	unseen	1876	157	4	None	376.0	5416.0	4.0	unseen-within	1	2	150.51	2.98	False	False	150.50344610214233	153.481467962265	[['b', 151.8234601020813]]	-1.0	unseen	False	False	1.313460102081308	2.9780218601226807	1.0	33.0	1627483986.3918	False		False			
02	ses-013	35	images_fmri/elbow/elbow_05s.jpg	seen	2753	230	5	None	553.0	8021.0	5.0	seen-within-between	3	2	154.98	2.98	True	False	154.9821479320526	157.94834089279175	[['y', 156.2993381023407]]	1.0	seen	False	False	1.3193381023407085	2.966192960739136	1.0	34.0	1627483990.8705	False		False	7.0	0.0	224.0
02	ses-013	36	images_fmri/prism/prism_04s.jpg	unseen	5956	497	4	None	1242.0	17665.0	4.0	unseen-within	1	2	159.45	2.98	False	True	159.45349192619324	162.43097591400146	[['x', 162.3404839038849]]	-1.0	unseen	False	False	2.890483903884899	2.9774839878082275	1.0	35.0	1627483995.3419	False		False			
02	ses-013	37	images_fmri/coleslaw/coleslaw_05s.jpg	seen	1925	161	5	None	387.0	5570.0	5.0	seen-between-within	3	2	163.92	2.98	False	True	163.91449093818665	166.90167689323425	[['b', 164.93289589881897]]	2.0	seen	False	True	1.0128958988189822	2.9871859550476074	1.0	36.0	1627483999.8029	False		False	0.0	475.4202001094818	83.0
02	ses-013	38	images_fmri/coffin/coffin_05s.jpg	seen	1901	159	5	None	384.0	5530.0	5.0	seen-between-within	3	2	168.39	2.98	True	False	168.3854100704193	171.36564993858337	[['x', 169.4502890110016]]	2.0	seen	False	True	1.0602890110016006	2.9802398681640625	1.0	37.0	1627484004.2738	False		False	0.0	53.63039994239807	12.0
02	ses-013	39	images_fmri/handcuff/handcuff_05s.jpg	seen	3641	304	5	None	747.0	10699.0	5.0	seen-between	2	2	172.86	2.98	True	False	172.84901094436646	175.8307490348816	[['x', 174.12170600891113]]	2.0	seen	False	True	1.2617060089111192	2.9817380905151367	1.0	38.0	1627484008.7374	False		False	7.0	0.0	109.0
02	ses-013	40	images_fmri/pogo_stick/pogo_stick_04s.jpg	unseen	5776	482	4	None	1209.0	17180.0	4.0	unseen-within	1	2	177.32999999999996	2.98	True	False	177.33476901054382	180.3019449710846	[['x', 178.50966691970825]]	2.0	seen	True	True	1.1796669197082963	2.9671759605407715	1.0	39.0	1627484013.2231	False		False			
02	ses-013	41	images_fmri/scarecrow/scarecrow_04s.jpg	unseen	6496	542	4	None	1377.0	19557.0	4.0	unseen-between	1	2	181.8	2.98	True	True	181.79841995239255	184.78183007240293	[['b', 182.9187309741974]]	2.0	seen	True	True	1.1187309741973763	2.983410120010376	1.0	40.0	1627484017.6868	False		False			
02	ses-013	42	images_fmri/anvil/anvil_05s.jpg	seen	173	15	5	None	29.0	396.0	5.0	seen-between-within	3	2	186.27	2.98	False	True	186.26979804039	189.252592086792	[['b', 187.22759103775024]]	2.0	seen	False	True	0.957591037750234	2.982794046401977	1.0	41.0	1627484022.1582	False		False	0.0	327.9112000465393	50.0
02	ses-013	43	images_fmri/violin/violin_05s.jpg	seen	8225	686	5	None	1765.0	24876.0	5.0	seen-within-between	3	2	190.74	2.98	True	True	190.73119592666623	193.7136850357056	[['y', 193.437087059021]]	1.0	seen	False	False	2.697087059020987	2.982489109039306	1.0	42.0	1627484026.6196	False		False	7.0	0.0	127.0
02	ses-013	44	images_fmri/overalls/overalls_04s.jpg	seen	5200	434	4	None	1091.0	15524.0	4.0	seen-within	2	2	195.21	2.98	True	False	195.1982660293579	198.18103289604187	[['x', 196.18077397346497]]	2.0	seen	False	True	0.970773973464958	2.98276686668396	1.0	43.0	1627484031.0866	False		False	0.0	58.09440016746521	13.0
02	ses-013	45	images_fmri/telescope/telescope_04s.jpg	unseen	7600	634	4	None	1641.0	23166.0	4.0	unseen-within	1	2	199.68	2.98	False	False	199.68379592895508	202.6467740535736	[['b', 201.07240509986877]]	-1.0	unseen	False	False	1.3924050998687676	2.9629781246185303	1.0	44.0	1627484035.5722	False		False			
02	ses-013	46	images_fmri/rhubarb/rhubarb_04s.jpg	unseen	6256	522	4	None	1308.0	18621.0	4.0	unseen-between	1	2	204.15	2.98	False	True	204.1521759033203	207.1301829814911	[['x', 205.72925806045532]]	-1.0	unseen	False	False	1.5792580604553166	2.9780070781707764	1.0	45.0	1627484040.0406	False		False			
02	ses-013	47	images_fmri/gauze/gauze_05s.jpg	seen	3209	268	5	None	665.0	9539.0	5.0	seen-between-within	3	2	208.62	2.98	False	False	208.6173219680786	211.60227298736567	[['x', 209.60855293273926]]	2.0	seen	False	True	0.9885529327392532	2.9849510192871094	1.0	46.0	1627484044.5057	False		False	0.0	129.63429999351501	29.0
02	ses-013	48	images_fmri/steak/steak_05s.jpg	seen	7205	601	5	None	1545.0	21828.0	5.0	seen-between	2	2	213.09	2.98	False	False	213.08404111862183	216.06299591064453	[['a', 214.6944420337677]]	1.0	seen	False	False	1.6044420337676968	2.978954792022705	1.0	47.0	1627484048.9724	False		False	7.0	0.0	227.0
02	ses-013	49	images_fmri/toolbox/toolbox_05s.jpg	seen	7829	653	5	None	1678.0	23682.0	5.0	seen-between-within	3	2	217.56	2.98	False	True	217.5669159889221	220.53331899642944	[['b', 218.48386192321777]]	2.0	seen	False	True	0.9238619232177712	2.966403007507324	1.0	48.0	1627484053.4553	False		False	0.0	165.3961000442505	37.0
02	ses-013	50	images_fmri/confetti/confetti_05s.jpg	seen	1985	166	5	None	397.0	5710.0	5.0	seen-between	2	2	222.03	2.98	False	False	222.03342008590695	224.9962329864502	[['a', 224.29841589927673]]	1.0	seen	False	False	2.2684158992767323	2.962812900543213	1.0	49.0	1627484057.9218	False		False	7.0	0.0	198.0
02	ses-013	51	images_fmri/hammer/hammer_04s.jpg	unseen	3592	300	4	None	742.0	10634.0	4.0	unseen-within	1	2	226.5	2.98	False	True	226.4974069595337	229.4799120426178	[['x', 228.42700004577637]]	-1.0	unseen	False	False	1.9270000457763672	2.9825050830841064	1.0	50.0	1627484062.3858	False		False			
02	ses-013	52	images_fmri/flower/flower_05s.jpg	seen	3029	253	5	None	620.0	8942.0	5.0	seen-between-within	3	2	230.97	2.98	False	False	230.962788105011	233.9475259780884	[['x', 231.98005294799805]]	2.0	seen	False	True	1.010052947998048	2.9847378730773926	1.0	51.0	1627484066.8512	False		False	0.0	129.6248002052307	29.0
02	ses-013	53	images_fmri/ferret/ferret_04s.jpg	unseen	2884	241	4	None	579.0	8375.0	4.0	unseen-between	1	2	235.44	2.98	True	True	235.43195009231567	238.41281390190125	[['a', 236.86901903152466]]	-2.0	unseen	False	True	1.4290190315246605	2.9808638095855717	1.0	52.0	1627484071.3203	False		False			
02	ses-013	54	images_fmri/telescope/telescope_04s.jpg	seen	7600	634	4	None	1641.0	23166.0	4.0	seen-within	2	2	239.91	2.98	False	True	239.91668605804443	242.8809399604797	[['b', 240.81525206565857]]	2.0	seen	False	True	0.9052520656585727	2.9642539024353027	1.0	53.0	1627484075.8051	False		False	0.0	40.2328999042511	9.0
02	ses-013	55	images_fmri/hippopotamus/hippopotamus_05s.jpg	seen	3785	316	5	None	782.0	11188.0	5.0	seen-between	2	2	244.38	2.98	True	False	244.384605884552	247.3625190258026	[['y', 246.36696791648865]]	1.0	seen	False	False	1.986967916488652	2.9779131412506104	1.0	54.0	1627484080.2730	False		False	7.0	0.0	303.0
02	ses-013	56	images_fmri/hammer/hammer_04s.jpg	seen	3592	300	4	None	742.0	10634.0	4.0	seen-within	2	2	248.85	2.98	True	False	248.84668111801147	251.8340349197388	[['x', 249.82143592834473]]	2.0	seen	False	True	0.9714359283447322	2.987353801727295	1.0	55.0	1627484084.7351	False		False	0.0	22.349300146102905	5.0
02	ses-013	57	images_fmri/silverware/silverware_04s.jpg	unseen	6772	565	4	None	1446.0	20506.0	4.0	unseen-within	1	2	253.32	2.98	True	False	253.31822204589844	256.2954800128937	[['y', 255.4226269721985]]	1.0	seen	True	False	2.102626972198493	2.9772579669952397	1.0	56.0	1627484089.2066	False		False			
02	ses-013	58	images_fmri/bunkbed/bunkbed_05s.jpg	seen	1145	96	5	None	223.0	3333.0	5.0	seen-within-between	3	2	257.79	2.98	False	False	257.7843840122223	260.7685000896454	[['x', 258.81763100624084]]	2.0	seen	False	True	1.0276310062408245	2.984116077423096	1.0	57.0	1627484093.6728	False		False	7.0	0.0	351.0
02	ses-013	59	images_fmri/rice/rice_05s.jpg	seen	6281	524	5	None	1310.0	18650.0	5.0	seen-within-between	3	2	262.26	2.98	False	False	262.265820980072	265.2284951210022	[['a', 265.08712100982666]]	1.0	seen	False	False	2.8271210098266693	2.962674140930176	1.0	58.0	1627484098.1542	False		False	7.0	0.0	389.0
02	ses-013	60	images_fmri/watch/watch_05s.jpg	seen	8369	698	5	None	1787.0	25187.0	5.0	seen-within-between	3	2	266.73	2.98	False	False	266.7285509109497	269.7120621204376	[['b', 268.20592403411865]]	-1.0	unseen	True	False	1.4759240341186342	2.983511209487915	1.0	59.0	1627484102.6169	False		False	7.0	0.0	165.0
