subject	session	TrialNumber	image_path	condition	image_nr	category_nr	exemplar_nr	test_image_nr	things_category_nr	things_image_nr	things_exemplar_nr	subcondition	repetition	run	onset	duration	response_mapping_flip_h	response_mapping_flip_v	onset_flip	offset_flip	keypresses	response	response_txt	error	response_confidence	response_time	duration_flip	ran	order	session_trial_time	atypical	atypical_log	exclude_session	delay_days	delay_seconds	trials_since_lastrep
02	ses-003	1	images_fmri/crank/crank_03s.jpg	seen	2127	178	3	None	433.0	6252.0	3.0	seen-within	2	5	3.0	2.98	False	False	2.9858291149139404	5.95032811164856	[['x', 4.395483016967773]]	2.0	seen	False	True	1.3954830169677734	2.964498996734619	1.0	0.0	1619623761.5440	False		False	0.0	518.2013998031616	64.0
02	ses-003	2	images_fmri/wheelchair/wheelchair_03n.jpg	unseen	8439	704	3	None	1809.0	25478.0	3.0	unseen-between	1	5	7.47	2.98	True	True	7.450912952423096	10.43569016456604	[['a', 8.757625102996826]]	-2.0	unseen	False	True	1.2876251029968264	2.9847772121429443	1.0	1.0	1619623766.0091	False		False			
02	ses-003	3	images_fmri/cork/cork_03s.jpg	unseen	2031	170	3	None	410.0	5888.0	3.0	unseen-within	1	5	11.94	2.98	True	False	11.9189031124115	14.900243997573853	[['a', 14.204744100570679]]	-2.0	unseen	False	True	2.264744100570679	2.981340885162353	1.0	2.0	1619623770.4771	False		False			
02	ses-003	4	images_fmri/toothpick/toothpick_03s.jpg	unseen	7839	654	3	None	1682.0	23734.0	3.0	unseen-between	1	5	16.41	2.98	True	True	16.385807037353516	19.369102954864506	[['a', 17.675752878189087]]	-2.0	unseen	False	True	1.2657528781890868	2.9832959175109863	1.0	3.0	1619623774.9440	False		False			
02	ses-003	5	images_fmri/knife/knife_03s.jpg	seen	4155	347	3	None	880.0	12593.0	3.0	seen-within	2	5	20.88	2.98	True	True	20.85163903236389	23.838276147842407	[['b', 21.842943906784058]]	2.0	seen	False	True	0.9629439067840586	2.986637115478516	1.0	4.0	1619623779.4099	False		False	0.0	397.2707998752594	59.0
02	ses-003	6	images_fmri/extinguisher/extinguisher_03s.jpg	seen	2799	234	3	None	564.0	8161.0	3.0	seen-within-between	3	5	25.35	2.98	True	False	25.338197946548465	28.30312204360962	[['x', 26.865336894989014]]	2.0	seen	False	True	1.5153368949890125	2.964924097061157	1.0	5.0	1619623783.8964	False		False	7.0	0.0	561.0
02	ses-003	7	images_fmri/calculator/calculator_03s.jpg	seen	1251	105	3	None	241.0	3573.0	3.0	seen-within-between	3	5	29.82	2.98	False	False	29.80528497695923	32.78373408317566	[['x', 31.65019702911377]]	2.0	seen	False	True	1.8301970291137688	2.9784491062164307	1.0	6.0	1619623788.3635	False		False	7.0	0.0	385.0
02	ses-003	8	images_fmri/cake/cake_03s.jpg	seen	1239	104	3	None	238.0	3532.0	3.0	seen-between-within	3	5	34.29	2.98	False	True	34.2713520526886	37.25439715385437	[['b', 35.191925048828125]]	2.0	seen	False	True	0.901925048828126	2.9830451011657715	1.0	7.0	1619623792.8296	False		False	0.0	173.78060007095337	9.0
02	ses-003	9	images_fmri/starfish/starfish_03s.jpg	seen	7191	600	3	None	1542.0	21781.0	3.0	seen-within-between	3	5	38.76	2.98	True	False	38.73885893821716	41.71667814254761	[['y', 41.04229807853699]]	1.0	seen	False	False	2.2822980785369893	2.9778192043304443	1.0	8.0	1619623797.2971	False		False	7.0	0.0	565.0
02	ses-003	10	images_fmri/pastry/pastry_03n.jpg	unseen	5379	449	3	None	1125.0	16019.0	3.0	unseen-within	1	5	43.23	2.98	False	False	43.22062706947327	46.18710398674011	[['b', 45.777146100997925]]	-1.0	unseen	False	False	2.547146100997928	2.9664769172668457	1.0	9.0	1619623801.7788	False		False			
02	ses-003	11	images_fmri/ribbon/ribbon_03s.jpg	unseen	6267	523	3	None	1309.0	18633.0	3.0	unseen-within	1	5	47.7	2.98	False	True	47.6863739490509	50.65436100959778	[['y', 49.060380935668945]]	-2.0	unseen	False	True	1.3603809356689425	2.967987060546875	1.0	10.0	1619623806.2446	False		False			
02	ses-003	12	images_fmri/copier/copier_03s.jpg	unseen	2019	169	3	None	406.0	5833.0	3.0	unseen-within	1	5	52.17	2.98	False	True	52.15474796295166	55.13338899612427	[['x', 54.306524991989136]]	-1.0	unseen	False	False	2.136524991989134	2.9786410331726074	1.0	11.0	1619623810.7130	False		False			
02	ses-003	13	images_fmri/camera2/camera2_03s.jpg	seen	1299	109	3	None	249.0	3680.0	3.0	seen-between-within	3	5	56.64	2.98	False	True	56.62023997306824	59.60425305366516	[['b', 57.639787912368774]]	2.0	seen	False	True	0.9997879123687738	2.984013080596924	1.0	12.0	1619623815.1785	False		False	0.0	625.4693999290466	88.0
02	ses-003	14	images_fmri/tadpole/tadpole_03s.jpg	unseen	7515	627	3	None	1615.0	22803.0	3.0	unseen-within	1	5	61.11	2.98	False	False	61.08785605430603	64.06886506080627	[['y', 62.56745791435242]]	-2.0	unseen	False	True	1.4574579143524176	2.981009006500244	1.0	13.0	1619623819.6461	False		False			
02	ses-003	15	images_fmri/pudding/pudding_03s.jpg	seen	5991	500	3	None	1247.0	17730.0	3.0	seen-within	2	5	65.58	2.98	False	False	65.5689799785614	68.53773808479309	[['x', 66.60386610031128]]	2.0	seen	False	True	1.023866100311281	2.968758106231689	1.0	14.0	1619623824.1272	False		False	0.0	214.0106999874115	18.0
02	ses-003	16	images_fmri/shirt/shirt_03s.jpg	seen	6675	557	3	None	1423.0	20182.0	3.0	seen-between	2	5	70.05	2.98	True	False	70.03591513633728	73.01601815223694	[['b', 72.12817907333374]]	-1.0	unseen	True	False	2.078179073333743	2.980103015899658	1.0	15.0	1619623828.5941	False		False	7.0	0.0	299.0
02	ses-003	17	images_fmri/pastry/pastry_03n.jpg	seen	5379	449	3	None	1125.0	16019.0	3.0	seen-within	2	5	74.52	2.98	True	False	74.50304102897644	77.48540997505188	[['x', 75.54830288887024]]	2.0	seen	False	True	1.0283028888702432	2.9823689460754395	1.0	16.0	1619623833.0613	False		False	0.0	31.28250002861023	7.0
02	ses-003	18	images_fmri/gun/gun_03s.jpg	unseen	3543	296	3	None	728.0	10438.0	3.0	unseen-between	1	5	78.99	2.98	False	False	78.97075605392456	81.94910907745361	[['x', 80.58322787284851]]	2.0	seen	True	True	1.593227872848516	2.9783530235290527	1.0	17.0	1619623837.5290	False		False			
02	ses-003	19	images_fmri/dough/dough_03s.jpg	unseen	2547	213	3	None	514.0	7448.0	3.0	unseen-within	1	5	83.46	2.98	False	True	83.43748307228088	86.41883707046509	[['y', 85.46219491958618]]	-2.0	unseen	False	True	2.002194919586188	2.981353998184204	1.0	18.0	1619623841.9957	False		False			
02	ses-003	20	images_fmri/artichoke/artichoke_03n.jpg	seen	207	18	3	None	40.0	555.0	3.0	seen-within	2	5	87.92999999999998	2.98	False	False	87.9184000492096	90.8871431350708	[['x', 89.01408290863037]]	2.0	seen	False	True	1.0840829086303927	2.968743085861206	1.0	19.0	1619623846.4766	False		False	0.0	625.4835999011993	88.0
02	ses-003	21	images_fmri/shrimp/shrimp_03s.jpg	seen	6747	563	3	None	1439.0	20403.0	3.0	seen-between	2	5	92.4	2.98	True	True	92.38506507873537	95.36859607696532	[['b', 93.84981203079224]]	2.0	seen	False	True	1.4498120307922306	2.9835309982299805	1.0	20.0	1619623850.9433	False		False	7.0	0.0	486.0
02	ses-003	22	images_fmri/ready_meal/ready_meal_03s.jpg	seen	6183	516	3	None	1293.0	18397.0	3.0	seen-between	2	5	96.87	2.98	False	False	96.85301113128662	99.83197212219238	[['x', 98.6196300983429]]	2.0	seen	False	True	1.749630098342891	2.9789609909057617	1.0	21.0	1619623855.4112	False		False	7.0	0.0	511.0
02	ses-003	23	images_fmri/copier/copier_03s.jpg	seen	2019	169	3	None	406.0	5833.0	3.0	seen-within	2	5	101.34	2.98	False	False	101.3199360370636	104.30317807197572	[['x', 102.31297588348389]]	2.0	seen	False	True	0.9729758834838832	2.9832420349121094	1.0	22.0	1619623859.8781	False		False	0.0	49.16509985923767	11.0
02	ses-003	24	images_fmri/tadpole/tadpole_03s.jpg	seen	7515	627	3	None	1615.0	22803.0	3.0	seen-within	2	5	105.81	2.98	True	False	105.78642797470091	108.76855301856996	[['x', 106.82195591926575]]	2.0	seen	False	True	1.0119559192657448	2.9821250438690186	1.0	23.0	1619623864.3446	False		False	0.0	44.69849991798401	10.0
02	ses-003	25	images_fmri/axe/axe_03n.jpg	seen	255	22	3	None	46.0	635.0	3.0	seen-between-within	3	5	110.28	2.98	False	False	110.26806211471558	113.23622798919678	[['x', 111.23395895957947]]	2.0	seen	False	True	0.9539589595794666	2.968165874481201	1.0	24.0	1619623868.8263	False		False	0.0	1721.5468997955322	264.0
02	ses-003	26	images_fmri/crayon/crayon_03s.jpg	seen	2163	181	3	None	436.0	6300.0	3.0	seen-between	2	5	114.75	2.98	True	True	114.73666000366212	117.71904706954956	[['b', 115.95907402038574]]	2.0	seen	False	True	1.2090740203857422	2.982387065887451	1.0	25.0	1619623873.2949	False		False	7.0	0.0	405.0
02	ses-003	27	images_fmri/battery/battery_03n.jpg	seen	447	38	3	None	98.0	1471.0	3.0	seen-between-within	3	5	119.22	2.98	True	False	119.20270109176636	122.18605494499208	[['x', 120.20603609085083]]	2.0	seen	False	True	0.9860360908508312	2.983353853225708	1.0	26.0	1619623877.7609	False		False	0.0	316.82509994506836	41.0
02	ses-003	28	images_fmri/rifle/rifle_03n.jpg	unseen	6291	525	3	None	1312.0	18674.0	3.0	unseen-between	1	5	123.69	2.98	False	True	123.66866302490234	126.64788007736206	[['y', 126.61659502983093]]	-2.0	unseen	False	True	2.926595029830935	2.979217052459717	1.0	27.0	1619623882.2269	False		False			
02	ses-003	29	images_fmri/sock/sock_03s.jpg	seen	6939	579	3	None	1490.0	21090.0	3.0	seen-between-within	3	5	128.16	2.98	False	True	128.1323161125183	131.11965608596802	[['b', 129.09685802459717]]	2.0	seen	False	True	0.9368580245971714	2.987339973449707	1.0	28.0	1619623886.6905	False		False	0.0	1111.2365000247955	173.0
02	ses-003	30	images_fmri/candy_bar/candy_bar_03s.jpg	unseen	1347	113	3	None	257.0	3784.0	3.0	unseen-within	1	5	132.63	2.98	False	True	132.61745595932007	135.5852439403534	[['a', 135.01107001304626]]	1.0	seen	True	False	2.381070013046269	2.967787981033325	1.0	29.0	1619623891.1757	False		False			
02	ses-003	31	images_fmri/ribbon/ribbon_03s.jpg	seen	6267	523	3	None	1309.0	18633.0	3.0	seen-within	2	5	137.1	2.98	True	False	137.08615899086	140.0671730041504	[['x', 138.11851406097412]]	2.0	seen	False	True	1.0185140609741268	2.9810140132904053	1.0	30.0	1619623895.6444	False		False	0.0	89.39979982376099	20.0
02	ses-003	32	images_fmri/guillotine/guillotine_03s.jpg	unseen	3519	294	3	None	722.0	10356.0	3.0	unseen-between	1	5	141.57	2.98	True	True	141.55195903778076	144.53085899353027	[['a', 143.70155096054077]]	-2.0	unseen	False	True	2.1315509605407783	2.978899955749512	1.0	31.0	1619623900.1102	False		False			
02	ses-003	33	images_fmri/hotdog/hotdog_03s.jpg	seen	3843	321	3	None	806.0	11527.0	3.0	seen-between	2	5	146.04	2.98	False	True	146.0186800956726	149.0004460811615	[['b', 148.454843044281]]	2.0	seen	False	True	2.414843044281014	2.981765985488892	1.0	32.0	1619623904.5769	False		False	7.0	0.0	417.0
02	ses-003	34	images_fmri/pepper1/pepper1_03s.jpg	seen	5499	459	3	None	1151.0	16372.0	3.0	seen-between	2	5	150.51	2.98	False	False	150.4851360321045	153.46687197685242	[['x', 151.92869997024536]]	2.0	seen	False	True	1.4186999702453704	2.981735944747925	1.0	33.0	1619623909.0433	False		False	7.0	0.0	281.0
02	ses-003	35	images_fmri/trowel/trowel_03s.jpg	unseen	8007	668	3	None	1720.0	24245.0	3.0	unseen-between	1	5	154.98	2.98	False	True	154.96933007240295	157.94736504554749	[['a', 156.9022400379181]]	1.0	seen	True	False	1.922240037918101	2.9780349731445312	1.0	34.0	1619623913.5275	False		False			
02	ses-003	36	images_fmri/ready_meal/ready_meal_03s.jpg	seen	6183	516	3	None	1293.0	18397.0	3.0	seen-between-within	3	5	159.45	2.98	True	False	159.435879945755	162.4178590774536	[['x', 160.42850494384766]]	2.0	seen	False	True	0.9785049438476676	2.9819791316986084	1.0	35.0	1619623917.9941	False		False	0.0	62.582900047302246	14.0
02	ses-003	37	images_fmri/guitar/guitar_03s.jpg	unseen	3531	295	3	None	724.0	10384.0	3.0	unseen-between	1	5	163.92	2.98	True	False	163.90223097801208	166.880784034729	[['x', 165.23852705955505]]	2.0	seen	True	True	1.3185270595550662	2.978553056716919	1.0	36.0	1619623922.4604	False		False			
02	ses-003	38	images_fmri/egg_roll/egg_roll_03n.jpg	unseen	2715	227	3	None	548.0	7952.0	3.0	unseen-between	1	5	168.39	2.98	True	True	168.36785697937012	171.34953212738037	[['a', 170.77774906158447]]	-2.0	unseen	False	True	2.3877490615844863	2.981675148010254	1.0	37.0	1619623926.9261	False		False			
02	ses-003	39	images_fmri/pantyhose/pantyhose_03s.jpg	seen	5307	443	3	None	1111.0	15805.0	3.0	seen-between	2	5	172.86	2.98	False	False	172.8336341381073	175.81685709953308	[['y', 174.95930290222168]]	-2.0	unseen	True	True	2.099302902221666	2.983222961425781	1.0	38.0	1619623931.3918	False		False	7.0	0.0	362.0
02	ses-003	40	images_fmri/lawnmower/lawnmower_03s.jpg	seen	4263	356	3	None	906.0	12958.0	3.0	seen-within-between	3	5	177.32999999999996	2.98	True	False	177.3180661201477	180.2828750610352	[['x', 178.78590297698975]]	2.0	seen	False	True	1.4559029769897904	2.964808940887451	1.0	39.0	1619623935.8763	False		False	7.0	0.0	368.0
02	ses-003	41	images_fmri/cork/cork_03s.jpg	seen	2031	170	3	None	410.0	5888.0	3.0	seen-within	2	5	181.8	2.98	False	False	181.78465700149536	184.76841807365415	[['x', 182.89829397201538]]	2.0	seen	False	True	1.0982939720153695	2.983761072158813	1.0	40.0	1619623940.3429	False		False	0.0	169.8658001422882	38.0
02	ses-003	42	images_fmri/pinwheel/pinwheel_03s.jpg	seen	5643	471	3	None	1186.0	16868.0	3.0	seen-within-between	3	5	186.27	2.98	True	True	186.25190114974976	189.23054194450376	[['b', 188.09564805030823]]	2.0	seen	False	True	1.8256480503082173	2.9786407947540283	1.0	41.0	1619623944.8101	False		False	7.0	0.0	424.0
02	ses-003	43	images_fmri/pretzel/pretzel_03s.jpg	seen	5943	496	3	None	1240.0	17638.0	3.0	seen-within	2	5	190.74	2.98	True	True	190.71813106536865	193.7016201019287	[['b', 191.77022409439087]]	2.0	seen	False	True	1.03022409439086	2.9834890365600586	1.0	42.0	1619623949.2763	False		False	0.0	383.85949993133545	56.0
02	ses-003	44	images_fmri/bike/bike_03s.jpg	seen	615	52	3	None	124.0	1888.0	3.0	seen-between-within	3	5	195.21	2.98	False	False	195.19933414459229	198.1673481464386	[['x', 196.23804998397827]]	2.0	seen	False	True	1.0280499839782635	2.968014001846313	1.0	43.0	1619623953.7575	False		False	0.0	1699.1910998821259	259.0
02	ses-003	45	images_fmri/pineapple/pineapple_03n.jpg	unseen	5619	469	3	None	1183.0	16831.0	3.0	unseen-within	1	5	199.68	2.98	False	True	199.66665506362915	202.6461009979248	[['y', 201.2543909549713]]	-2.0	unseen	False	True	1.5743909549713069	2.9794459342956543	1.0	44.0	1619623958.2249	False		False			
02	ses-003	46	images_fmri/lectern/lectern_03s.jpg	unseen	4275	357	3	None	909.0	13000.0	3.0	unseen-between	1	5	204.15	2.98	True	False	204.13496494293213	207.1130311489105	[['x', 206.4751570224762]]	2.0	seen	True	True	2.3251570224761906	2.9780662059783936	1.0	45.0	1619623962.6932	False		False			
02	ses-003	47	images_fmri/oar/oar_03s.jpg	seen	5103	426	3	None	1069.0	15197.0	3.0	seen-between-within	3	5	208.62	2.98	True	True	208.6002540588379	211.58385396003723	[['b', 209.58331108093262]]	2.0	seen	False	True	0.9633110809326126	2.983599901199341	1.0	46.0	1619623967.1585	False		False	0.0	714.86629986763	108.0
02	ses-003	48	images_fmri/gramophone/gramophone_03s.jpg	seen	3351	280	3	None	700.0	10022.0	3.0	seen-within	2	5	213.09	2.98	True	True	213.0648550987244	216.0494129657745	[['b', 214.13821291923523]]	2.0	seen	False	True	1.048212919235226	2.984557867050171	1.0	47.0	1619623971.6231	False		False	0.0	786.3803999423981	124.0
02	ses-003	49	images_fmri/pencil_sharpener/pencil_sharpener_03s.jpg	seen	5475	457	3	None	1144.0	16271.0	3.0	seen-within-between	3	5	217.56	2.98	False	True	217.5486991405487	220.51696395874023	[['b', 218.50496292114258]]	2.0	seen	False	True	0.944962921142576	2.9682648181915283	1.0	48.0	1619623976.1069	False		False	7.0	0.0	352.0
02	ses-003	50	images_fmri/pantyhose/pantyhose_03s.jpg	seen	5307	443	3	None	1111.0	15805.0	3.0	seen-between-within	3	5	222.03	2.98	False	False	222.01513600349423	224.99955010414124	[['x', 222.99318099021912]]	2.0	seen	False	True	0.9631809902191152	2.9844141006469727	1.0	49.0	1619623980.5733	False		False	0.0	49.18149995803833	11.0
02	ses-003	51	images_fmri/piano/piano_03n.jpg	seen	5535	462	3	None	1166.0	16588.0	3.0	seen-within-between	3	5	226.5	2.98	True	True	226.4831759929657	229.46428608894348	[['a', 227.9567620754242], ['b', 228.94252705574036]]	-2.0	unseen	True	True	1.4567620754241943	2.981110095977783	1.0	50.0	1619623985.0414	False		False	7.0	0.0	341.0
02	ses-003	52	images_fmri/scaffolding/scaffolding_03n.jpg	seen	6459	539	3	None	1371.0	19477.0	3.0	seen-between-within	3	5	230.97	2.98	True	True	230.94870710372925	233.9322431087494	[['b', 231.8947160243988]]	2.0	seen	False	True	0.9247160243988048	2.9835360050201416	1.0	51.0	1619623989.5069	False		False	0.0	593.9508001804352	103.0
02	ses-003	53	images_fmri/pepper1/pepper1_03s.jpg	seen	5499	459	3	None	1151.0	16372.0	3.0	seen-between-within	3	5	235.44	2.98	True	True	235.41530513763428	238.3998250961304	[['b', 236.3369128704071]]	2.0	seen	False	True	0.8969128704071068	2.9845199584960938	1.0	52.0	1619623993.9735	False		False	0.0	84.93020009994507	19.0
02	ses-003	54	images_fmri/puck/puck_03s.jpg	seen	5979	499	3	None	1246.0	17718.0	3.0	seen-within-between	3	5	239.91	2.98	True	False	239.89892506599423	242.86255502700809	[['x', 241.23930096626282]]	2.0	seen	False	True	1.3293009662628208	2.963629961013794	1.0	53.0	1619623998.4571	False		False	7.0	0.0	497.0
02	ses-003	55	images_fmri/candy_bar/candy_bar_03s.jpg	seen	1347	113	3	None	257.0	3784.0	3.0	seen-within	2	5	244.38	2.98	True	False	244.3659851551056	247.3491621017456	[['x', 245.45995092391968]]	2.0	seen	False	True	1.0799509239196825	2.983176946640014	1.0	54.0	1619624002.9242	False		False	0.0	111.74850010871887	25.0
02	ses-003	56	images_fmri/spider/spider_03s.jpg	seen	7059	589	3	None	1514.0	21407.0	3.0	seen-between	2	5	248.85	2.98	True	True	248.8319971561432	251.81285405159	[['b', 250.8752989768982]]	2.0	seen	False	True	2.025298976898199	2.9808568954467773	1.0	55.0	1619624007.3902	False		False	7.0	0.0	306.0
02	ses-003	57	images_fmri/crayon/crayon_03s.jpg	seen	2163	181	3	None	436.0	6300.0	3.0	seen-between-within	3	5	253.32	2.98	False	True	253.2993221282959	256.2827889919281	[['b', 254.19976902008057]]	2.0	seen	False	True	0.8797690200805732	2.983466863632202	1.0	56.0	1619624011.8575	False		False	0.0	138.56260013580322	31.0
02	ses-003	58	images_fmri/thumbtack/thumbtack_03s.jpg	unseen	7683	641	3	None	1655.0	23365.0	3.0	unseen-between	1	5	257.79	2.98	True	True	257.76621103286743	260.7455949783325	[['a', 259.3227529525757]]	-2.0	unseen	False	True	1.5327529525756631	2.979383945465088	1.0	57.0	1619624016.3244	False		False			
02	ses-003	59	images_fmri/revolver/revolver_03s.jpg	unseen	6231	520	3	None	1305.0	18576.0	3.0	unseen-between	1	5	262.26	2.98	False	False	262.2474751472473	265.21543312072754	[['a', 264.7131099700928]]	1.0	seen	True	False	2.4531099700927825	2.9679579734802246	1.0	58.0	1619624020.8057	False		False			
02	ses-003	60	images_fmri/headphones/headphones_03s.jpg	unseen	3699	309	3	None	767.0	10983.0	3.0	unseen-between	1	5	266.73	2.98	False	True	266.7162539958954	269.6968531608581	[['a', 268.76889300346375]]	1.0	seen	True	False	2.038893003463727	2.980599164962769	1.0	59.0	1619624025.2745	False		False			
