subject	session	TrialNumber	image_path	condition	image_nr	category_nr	exemplar_nr	test_image_nr	things_category_nr	things_image_nr	things_exemplar_nr	subcondition	repetition	run	onset	duration	response_mapping_flip_h	response_mapping_flip_v	onset_flip	offset_flip	keypresses	response	response_txt	error	response_confidence	response_time	duration_flip	ran	order	session_trial_time	atypical	atypical_log	exclude_session	delay_days	delay_seconds	trials_since_lastrep
01	ses-035	1	images_fmri/defibrillator/defibrillator_01b.jpg	seen	2365	198	1	None	478.0	6911.0	1.0	seen-between	2	2	3.0	2.98	True	True	3.000680885044858	5.96664765314199	[['x', 5.501005371101201]]	-1.0	unseen	True	False	2.5010053711012006	2.9659667680971324	1.0	0.0	1139692.0155575445	False		False	7.0	0.0	405.0
01	ses-035	2	images_fmri/asparagus/asparagus_01b.jpg	seen	229	20	1	None	43.0	592.0	1.0	seen-between	2	2	7.47	2.98	False	False	7.466335345059633	10.449606253067032	[['b', 8.755781120155007]]	-1.0	unseen	True	False	1.285781120155007	2.9832709080073982	1.0	1.0	1139696.4855575445	False		False	7.0	0.0	414.0
01	ses-035	3	images_fmri/lingerie/lingerie_01b.jpg	seen	4417	369	1	None	933.0	13320.0	1.0	seen-between	2	2	11.94	2.98	True	True	11.937023367034271	14.9162715759594	[['y', 13.957517249044031]]	1.0	seen	False	False	2.0175172490440314	2.979248208925128	1.0	2.0	1139700.9555575445	False		False	7.0	0.0	165.0
01	ses-035	4	images_fmri/compass/compass_01b.jpg	unseen	1945	163	1	None	393.0	5650.0	1.0	unseen-within	1	2	16.41	2.98	False	False	16.400778657989576	19.382587590022013	[['b', 18.901821434963495]]	-1.0	unseen	False	False	2.4918214349634944	2.981808932032436	1.0	3.0	1139705.4255575445	False		False			
01	ses-035	5	images_fmri/cinnamon/cinnamon_01b.jpg	seen	1765	148	1	None	349.0	5047.0	1.0	seen-between	2	2	20.88	2.98	False	False	20.88565339613706	23.8492659421172	[['a', 22.743597076972947]]	1.0	seen	False	False	1.8635970769729475	2.963612545980141	1.0	4.0	1139709.8955575444	False		False	7.0	0.0	291.0
01	ses-035	6	images_fmri/prism/prism_01b.jpg	unseen	5953	497	1	None	1242.0	17662.0	1.0	unseen-within	1	2	25.35	2.98	True	True	25.35280333715491	28.33239161712117	[['x', 27.35351253906265]]	-1.0	unseen	False	False	2.003512539062648	2.979588279966265	1.0	5.0	1139714.3655575446	False		False			
01	ses-035	7	images_fmri/anteater/anteater_01b.jpg	unseen	133	12	1	None	26.0	356.0	1.0	unseen-between	1	2	29.82	2.98	False	True	29.818014506949112	32.79980366001837	[['a', 32.80174605711363]]	1.0	seen	True	False	2.9817460571136323	2.9817891530692577	1.0	6.0	1139718.8355575446	False		False			
01	ses-035	8	images_fmri/noodle/noodle_01s.jpg	seen	5077	424	1	None	1062.0	15106.0	1.0	seen-between	2	2	34.29	2.98	False	True	34.28220984712243	37.26985555305146	[['x', 35.26158123696223]]	-1.0	unseen	True	False	0.97158123696223	2.987645705929026	1.0	7.0	1139723.3055575446	False		False	7.0	0.0	207.0
01	ses-035	9	images_fmri/sea_urchin/sea_urchin_01b.jpg	seen	6565	548	1	None	1394.0	19783.0	1.0	seen-between	2	2	38.76	2.98	True	False	38.7539458910469	41.73204176104628	[['b', 40.12659723102115]]	-1.0	unseen	True	False	1.366597231021153	2.978095869999379	1.0	8.0	1139727.7755575445	False		False	7.0	0.0	236.0
01	ses-035	10	images_fmri/oatmeal/oatmeal_01s.jpg	unseen	5113	427	1	None	1070.0	15208.0	1.0	unseen-within	1	2	43.23	2.98	True	True	43.23563275695778	46.198516563978046	[['x', 44.73973092599772]]	-1.0	unseen	False	False	1.5097309259977223	2.962883807020262	1.0	9.0	1139732.2455575445	False		False			
01	ses-035	11	images_fmri/solar_panel/solar_panel_01b.jpg	seen	6961	581	1	None	1494.0	21139.0	1.0	seen-within-between	3	2	47.7	2.98	False	True	47.7040134051349	50.68166973814368	[['a', 49.496506727067754]]	1.0	seen	False	False	1.7965067270677508	2.977656333008781	1.0	10.0	1139736.7155575445	False		False	7.0	0.0	298.0
01	ses-035	12	images_fmri/coin/coin_01b.jpg	seen	1909	160	1	None	386.0	5551.0	1.0	seen-within-between	3	2	52.17	2.98	True	False	52.17085994407535	55.1483783130534	[['b', 53.593546766089275]]	-1.0	unseen	True	False	1.4235467660892738	2.9775183689780533	1.0	11.0	1139741.1855575445	False		False	7.0	0.0	78.0
01	ses-035	13	images_fmri/praying_mantis/praying_mantis_01b.jpg	seen	5929	495	1	None	1239.0	17615.0	1.0	seen-within-between	3	2	56.64	2.98	True	True	56.63620080216788	59.615114212967455	[['x', 58.110512878978625]]	-1.0	unseen	True	False	1.4705128789786244	2.978913410799578	1.0	12.0	1139745.6555575444	False		False	7.0	0.0	141.0
01	ses-035	14	images_fmri/dice/dice_01s.jpg	unseen	2401	201	1	None	487.0	7039.0	1.0	unseen-within	1	2	61.11	2.98	False	False	61.10416514612734	64.08170501398854	[['b', 62.21565377805382]]	-1.0	unseen	False	False	1.1056537780538207	2.9775398678611964	1.0	13.0	1139750.1255575446	False		False			
01	ses-035	15	images_fmri/lemon/lemon_01b.jpg	unseen	4321	361	1	None	915.0	13080.0	1.0	unseen-between	1	2	65.58	2.98	True	True	65.58438626397401	68.55328405508772	[['x', 66.59809602797031]]	-1.0	unseen	False	False	1.0180960279703155	2.9688977911137044	1.0	14.0	1139754.5955575446	False		False			
01	ses-035	16	images_fmri/compass/compass_01b.jpg	seen	1945	163	1	None	393.0	5650.0	1.0	seen-within	2	2	70.05	2.98	False	True	70.04891726211645	73.03118252800778	[['b', 71.0550532580819]]	2.0	seen	False	True	1.005053258081901	2.9822652658913285	1.0	15.0	1139759.0655575446	False		False	0.0	53.640000000130385	12.0
01	ses-035	17	images_fmri/crowbar/crowbar_01b.jpg	seen	2221	186	1	None	448.0	6483.0	1.0	seen-within-between	3	2	74.52	2.98	False	False	74.51959347096272	77.49781650095247	[['x', 76.2621029401198]]	2.0	seen	False	True	1.742102940119807	2.978223029989749	1.0	16.0	1139763.5355575446	False		False	7.0	0.0	150.0
01	ses-035	18	images_fmri/elephant/elephant_01b.jpg	seen	2761	231	1	None	555.0	8043.0	1.0	seen-within-between	3	2	78.99	2.98	True	True	78.98607418406755	81.96984189515933	[['x', 80.16903719096445]]	-1.0	unseen	True	False	1.1790371909644506	2.983767711091786	1.0	17.0	1139768.0055575445	False		False	7.0	0.0	259.0
01	ses-035	19	images_fmri/basket/basket_01b.jpg	unseen	421	36	1	None	83.0	1230.0	1.0	unseen-between	1	2	83.46	2.98	True	False	83.45164470514283	86.43085181107745	[['b', 84.87730424595065]]	-1.0	unseen	False	False	1.4173042459506604	2.97920710593462	1.0	18.0	1139772.4755575445	False		False			
01	ses-035	20	images_fmri/stove1/stove1_01b.jpg	seen	7261	606	1	None	1564.0	22083.0	1.0	seen-between-within	3	2	87.92999999999998	2.98	True	True	87.93466868204996	90.89735538209789	[['b', 89.07917151995935]]	2.0	seen	False	True	1.149171519959367	2.962686700047925	1.0	19.0	1139776.9455575445	False		False	0.0	301.55225039995275	45.0
01	ses-035	21	images_fmri/marshmallow/marshmallow_01b.jpg	seen	4645	388	1	None	978.0	13934.0	1.0	seen-within	2	2	92.4	2.98	True	True	92.40236622607335	95.38060920406132	[['y', 93.61269551794976]]	1.0	seen	False	False	1.2126955179497545	2.978242977987975	1.0	20.0	1139781.4155575444	False		False	0.0	301.55225039995275	45.0
01	ses-035	22	images_fmri/mosquito/mosquito_01b.jpg	seen	4885	408	1	None	1021.0	14541.0	1.0	seen-between	2	2	96.87	2.98	True	False	96.8681335770525	99.84708386100829	[['b', 98.08748962916434]]	-1.0	unseen	True	False	1.2174896291643336	2.9789502839557827	1.0	21.0	1139785.8855575447	False		False	7.0	0.0	207.0
01	ses-035	23	images_fmri/candy_bar/candy_bar_01b.jpg	seen	1345	113	1	None	257.0	3782.0	1.0	seen-within-between	3	2	101.34	2.98	True	False	101.3355728641618	104.31361895916052	[['b', 102.45125143206678]]	-1.0	unseen	True	False	1.11125143206678	2.9780460949987173	1.0	22.0	1139790.3555575446	False		False	7.0	0.0	240.0
01	ses-035	24	images_fmri/rattle/rattle_01b.jpg	unseen	6157	514	1	None	1288.0	18326.0	1.0	unseen-between	1	2	105.81	2.98	True	True	105.80261692008936	108.78032366209663	[['x', 106.96384292514995]]	-1.0	unseen	False	False	1.1538429251499451	2.9777067420072854	1.0	23.0	1139794.8255575446	False		False			
01	ses-035	25	images_fmri/noodle/noodle_01s.jpg	seen	5077	424	1	None	1062.0	15106.0	1.0	seen-between-within	3	2	110.28	2.98	False	True	110.28336267801932	113.24683329695836	[['b', 112.02306012413464]]	2.0	seen	False	True	1.7430601241346435	2.963470618939027	1.0	24.0	1139799.2955575446	False		False	0.0	75.98999999999069	17.0
01	ses-035	26	images_fmri/shower_cap/shower_cap_01b.jpg	seen	6721	561	1	None	1435.0	20340.0	1.0	seen-between	2	2	114.75	2.98	True	False	114.75175410415976	117.73020011605696	[['b', 116.13476485200226]]	-1.0	unseen	True	False	1.384764852002263	2.9784460118971765	1.0	25.0	1139803.7655575445	False		False	7.0	0.0	134.0
01	ses-035	27	images_fmri/sundial/sundial_01b.jpg	seen	7357	614	1	None	1584.0	22361.0	1.0	seen-within-between	3	2	119.22	2.98	True	False	119.21837920905092	122.20168195106088	[['b', 122.31968233594671]]	-1.0	unseen	True	False	3.09968233594671	2.9833027420099825	1.0	26.0	1139808.2355575445	False		False	7.0	0.0	96.0
01	ses-035	28	images_fmri/helmet/helmet_01b.jpg	unseen	3745	313	1	None	777.0	11124.0	1.0	unseen-between	1	2	123.69	2.98	False	False	123.67988870409316	126.66321563511156	[['b', 125.61954065412283]]	-1.0	unseen	False	False	1.929540654122832	2.9833269310183823	1.0	27.0	1139812.7055575445	False		False			
01	ses-035	29	images_fmri/cinnamon/cinnamon_01b.jpg	seen	1765	148	1	None	349.0	5047.0	1.0	seen-between-within	3	2	128.16	2.98	True	False	128.16677257511765	131.1296731370967	[['x', 129.17202261509374]]	2.0	seen	False	True	1.0120226150937413	2.9629005619790405	1.0	28.0	1139817.1755575445	False		False	0.0	107.28000000002794	24.0
01	ses-035	30	images_fmri/lock/lock_01b.jpg	seen	4489	375	1	None	941.0	13430.0	1.0	seen-between	2	2	132.63	2.98	False	True	132.63259119610302	135.61282998509705	[['x', 135.01403908408247]]	-1.0	unseen	True	False	2.384039084082474	2.980238788994029	1.0	29.0	1139821.6455575444	False		False	7.0	0.0	322.0
01	ses-035	31	images_fmri/pantyhose/pantyhose_01b.jpg	seen	5305	443	1	None	1111.0	15803.0	1.0	seen-between	2	2	137.1	2.98	True	True	137.10118329315446	140.0793788570445	[['y', 139.242037988035]]	1.0	seen	False	False	2.142037988035014	2.97819556389004	1.0	30.0	1139826.1155575446	False		False	7.0	0.0	263.0
01	ses-035	32	images_fmri/tractor/tractor_01b.jpg	seen	7909	660	1	None	1696.0	23923.0	1.0	seen-within-between	3	2	141.57	2.98	True	True	141.56717188609764	144.55059921904467	[['x', 144.88177278311923]]	-1.0	unseen	True	False	3.3117727831192383	2.9834273329470307	1.0	31.0	1139830.5855575446	False		False	7.0	0.0	169.0
01	ses-035	33	images_fmri/lettuce/lettuce_01b.jpg	unseen	4357	364	1	None	921.0	13158.0	1.0	unseen-within	1	2	146.04	2.98	False	False	146.02913149702363	149.0124094961211	[['b', 147.34412049199454]]	-1.0	unseen	False	False	1.3041204919945528	2.9832779990974814	1.0	32.0	1139835.0555575446	False		False			
01	ses-035	34	images_fmri/weasel/weasel_01b.jpg	unseen	8389	700	1	None	1798.0	25325.0	1.0	unseen-between	1	2	150.51	2.98	False	False	150.5155461761169	153.47890711505897	[['b', 152.7302211530041]]	-1.0	unseen	False	False	2.220221153004104	2.96336093894206	1.0	33.0	1139839.5255575445	False		False			
01	ses-035	35	images_fmri/lingerie/lingerie_01b.jpg	seen	4417	369	1	None	933.0	13320.0	1.0	seen-between-within	3	2	154.98	2.98	False	True	154.98275302094407	157.96270494302735	[['b', 155.9849750411231]]	2.0	seen	False	True	1.0049750411231173	2.979951922083273	1.0	34.0	1139843.9955575445	False		False	0.0	143.04000000003725	32.0
01	ses-035	36	images_fmri/lightbulb/lightbulb_01b.jpg	seen	4381	366	1	None	928.0	13249.0	1.0	seen-between	2	2	159.45	2.98	False	False	159.44656768697314	162.43437491706572	[['b', 160.35664755105972]]	-1.0	unseen	True	False	0.9066475510597344	2.987807230092585	1.0	35.0	1139848.4655575445	False		False	7.0	0.0	207.0
01	ses-035	37	images_fmri/treadmill/treadmill_01b.jpg	seen	7969	665	1	None	1707.0	24072.0	1.0	seen-between-within	3	2	163.92	2.98	False	False	163.9138344200328	166.89704395015724	[['x', 164.9667350051459]]	2.0	seen	False	True	1.046735005145905	2.983209530124441	1.0	36.0	1139852.9355575445	False		False	0.0	493.7622503999155	88.0
01	ses-035	38	images_fmri/boy/boy_01b.jpg	unseen	925	78	1	None	185.0	2799.0	1.0	unseen-within	1	2	168.39	2.98	False	False	168.3836551120039	171.36200467101298	[['b', 169.68346560606733]]	-1.0	unseen	False	False	1.2934656060673433	2.978349559009075	1.0	37.0	1139857.4055575444	False		False			
01	ses-035	39	images_fmri/easel/easel_01b.jpg	seen	2689	225	1	None	543.0	7878.0	1.0	seen-within	2	2	172.86	2.98	True	True	172.86478321696632	175.828520657029	[['b', 173.84153375099413]]	2.0	seen	False	True	0.9815337509941172	2.963737440062687	1.0	38.0	1139861.8755575446	False		False	0.0	413.3022504001856	70.0
01	ses-035	40	images_fmri/toolbox/toolbox_01b.jpg	unseen	7825	653	1	None	1678.0	23678.0	1.0	unseen-within	1	2	177.32999999999996	2.98	True	False	177.33349426207133	180.3116986199748	[['b', 179.74256323603913]]	-1.0	unseen	False	False	2.412563236039176	2.9782043579034507	1.0	39.0	1139866.3455575446	False		False			
01	ses-035	41	images_fmri/artichoke/artichoke_01b.jpg	unseen	205	18	1	None	40.0	553.0	1.0	unseen-between	1	2	181.8	2.98	False	False	181.7959806669969	184.7781676140148	[['b', 183.33107790304348]]	-1.0	unseen	False	False	1.5310779030434674	2.982186947017908	1.0	40.0	1139870.8155575446	False		False			
01	ses-035	42	images_fmri/violin/violin_01b.jpg	seen	8221	686	1	None	1765.0	24872.0	1.0	seen-within	2	2	186.27	2.98	False	False	186.26147664897144	189.2446623409633	[['x', 188.06521378015168]]	2.0	seen	False	True	1.79521378015167	2.983185691991821	1.0	41.0	1139875.2855575446	False		False	0.0	489.29225039994344	87.0
01	ses-035	43	images_fmri/oatmeal/oatmeal_01s.jpg	seen	5113	427	1	None	1070.0	15208.0	1.0	seen-within	2	2	190.74	2.98	False	True	190.7332384900656	193.7113400560338	[['b', 192.04919129703194]]	2.0	seen	False	True	1.30919129703193	2.9781015659682453	1.0	42.0	1139879.7555575445	False		False	0.0	147.5100000000093	33.0
01	ses-035	44	images_fmri/fire/fire_01b.jpg	unseen	2929	245	1	None	591.0	8531.0	1.0	unseen-within	1	2	195.21	2.98	True	False	195.21522412612103	198.17778559098952	[['b', 196.34087053709663]]	-1.0	unseen	False	False	1.1308705370966263	2.962561464868486	1.0	43.0	1139884.2255575445	False		False			
01	ses-035	45	images_fmri/pantyhose/pantyhose_01b.jpg	seen	5305	443	1	None	1111.0	15803.0	1.0	seen-between-within	3	2	199.68	2.98	True	True	199.68264383007767	202.6609680601396	[['b', 201.19730956410058]]	2.0	seen	False	True	1.5173095641005716	2.978324230061844	1.0	44.0	1139888.6955575445	False		False	0.0	62.579999999841675	14.0
01	ses-035	46	images_fmri/bib/bib_01n.jpg	seen	601	51	1	None	123.0	1871.0	1.0	seen-within-between	3	2	204.15	2.98	False	False	204.14512521098368	207.1330589291174	[['b', 205.09304495807737]]	-1.0	unseen	True	False	0.9430449580773654	2.9879337181337178	1.0	45.0	1139893.1655575444	False		False	7.0	0.0	138.0
01	ses-035	47	images_fmri/stiletto/stiletto_01b.jpg	unseen	7237	604	1	None	1555.0	21960.0	1.0	unseen-within	1	2	208.62	2.98	True	True	208.616408576956	211.5944084459916	[['x', 210.66244847304188]]	-1.0	unseen	False	False	2.0424484730418726	2.977999869035557	1.0	46.0	1139897.6355575447	False		False			
01	ses-035	48	images_fmri/projector/projector_01b.jpg	seen	5965	498	1	None	1243.0	17674.0	1.0	seen-within-between	3	2	213.09	2.98	False	True	213.08186121005565	216.060585251078	[['a', 215.47662300011143]]	1.0	seen	False	False	2.3866230001114275	2.9787240410223603	1.0	47.0	1139902.1055575446	False		False	7.0	0.0	200.0
01	ses-035	49	images_fmri/mosquito/mosquito_01b.jpg	seen	4885	408	1	None	1021.0	14541.0	1.0	seen-between-within	3	2	217.56	2.98	True	True	217.56059491704215	220.5324058369733	[['b', 218.44108526594937]]	2.0	seen	False	True	0.8810852659493662	2.9718109199311584	1.0	48.0	1139906.5755575446	False		False	0.0	120.68999999994412	27.0
01	ses-035	50	images_fmri/shield/shield_01b.jpg	unseen	6649	555	1	None	1421.0	20155.0	1.0	unseen-within	1	2	222.03	2.98	False	True	222.03169597196396	225.0106258080341	[['x', 223.3812235801015]]	-1.0	unseen	False	False	1.3512235801015038	2.978929836070165	1.0	49.0	1139911.0455575446	False		False			
01	ses-035	51	images_fmri/dice/dice_01s.jpg	seen	2401	201	1	None	487.0	7039.0	1.0	seen-within	2	2	226.5	2.98	False	True	226.4987199581228	229.48122200509533	[['b', 227.40527397510596]]	2.0	seen	False	True	0.9052739751059562	2.982502046972513	1.0	50.0	1139915.5155575445	False		False	0.0	165.38999999989755	37.0
01	ses-035	52	images_fmri/bungee/bungee_01b.jpg	seen	1129	95	1	None	222.0	3317.0	1.0	seen-between	2	2	230.97	2.98	False	False	230.9647221269552	233.94352526799776	[['b', 233.48088178713806]]	-1.0	unseen	True	False	2.510881787138061	2.97880314104259	1.0	51.0	1139919.9855575445	False		False	7.0	0.0	113.0
01	ses-035	53	images_fmri/zebra/zebra_01b.jpg	unseen	8617	719	1	None	1852.0	26063.0	1.0	unseen-between	1	2	235.44	2.98	False	False	235.4308938810136	238.41005943203345	[['b', 237.64217054704204]]	-1.0	unseen	False	False	2.2021705470420443	2.9791655510198325	1.0	52.0	1139924.4555575445	False		False			
01	ses-035	54	images_fmri/sword/sword_01b.jpg	unseen	7417	619	1	None	1603.0	22644.0	1.0	unseen-within	1	2	239.91	2.98	True	True	239.9099457701668	242.8766663579736	[['x', 241.70928367204033], ['a', 243.12815559795126]]	-1.0	unseen	False	False	1.7992836720403318	2.966720587806776	1.0	53.0	1139928.9255575445	False		False			
01	ses-035	55	images_fmri/rug/rug_01b.jpg	seen	6385	533	1	None	1341.0	19068.0	1.0	seen-within-between	3	2	244.38	2.98	True	False	244.3765679609496	247.35984433395788	[['b', 246.49010312813334]]	-1.0	unseen	True	False	2.110103128133346	2.983276373008266	1.0	54.0	1139933.3955575444	False		False	7.0	0.0	394.0
01	ses-035	56	images_fmri/boy/boy_01b.jpg	seen	925	78	1	None	185.0	2799.0	1.0	seen-within	2	2	248.85	2.98	True	True	248.84748378396037	251.8262845200952	[['b', 249.81077053397894]]	2.0	seen	False	True	0.9607705339789449	2.978800736134872	1.0	55.0	1139937.8655575446	False		False	0.0	80.46000000019558	18.0
01	ses-035	57	images_fmri/panda/panda_01b.jpg	unseen	5293	442	1	None	1106.0	15734.0	1.0	unseen-within	1	2	253.32	2.98	True	False	253.31504188105464	256.29287272295915	[['b', 254.63879204704426]]	-1.0	unseen	False	False	1.3187920470442691	2.977830841904506	1.0	56.0	1139942.3355575446	False		False			
01	ses-035	58	images_fmri/bird/bird_01b.jpg	seen	637	54	1	None	129.0	1971.0	1.0	seen-within-between	3	2	257.79	2.98	False	False	257.7987711050082	260.76388486707583	[['b', 261.27503232611343]]	-1.0	unseen	True	False	3.485032326113412	2.965113762067631	1.0	57.0	1139946.8055575446	False		False	7.0	0.0	376.0
01	ses-035	59	images_fmri/fire/fire_01b.jpg	seen	2929	245	1	None	591.0	8531.0	1.0	seen-within	2	2	262.26	2.98	False	True	262.2596135090571	265.2428128200117	[['b', 263.24155547306873]]	2.0	seen	False	True	0.981555473068738	2.98319931095466	1.0	58.0	1139951.2755575445	False		False	0.0	67.05000000004657	15.0
01	ses-035	60	images_fmri/shower_cap/shower_cap_01b.jpg	seen	6721	561	1	None	1435.0	20340.0	1.0	seen-between-within	3	2	266.73	2.98	False	False	266.7313245909754	269.70958229806274	[['x', 268.08634164812975]]	2.0	seen	False	True	1.356341648129728	2.978257707087323	1.0	59.0	1139955.7455575445	False		False	0.0	151.97999999998137	34.0
