subject	session	TrialNumber	image_path	condition	image_nr	category_nr	exemplar_nr	test_image_nr	things_category_nr	things_image_nr	things_exemplar_nr	subcondition	repetition	run	onset	duration	response_mapping_flip_h	response_mapping_flip_v	onset_flip	offset_flip	keypresses	response	response_txt	error	response_confidence	response_time	duration_flip	ran	order	session_trial_time	atypical	atypical_log	exclude_session	delay_days	delay_seconds	trials_since_lastrep
03	ses-029	1	images_fmri/zucchini/zucchini_05s.jpg	seen	8633	720	5	None	1854.0	26099.0	5.0	seen-between	2	5	3.0	2.98	True	False	3.002441701013595	5.967105872929096	[['b', 4.969854914583266]]	-1.0	unseen	True	False	1.9698549145832656	2.9646641719155014	1.0	0.0	3782153.7138	False		False	7.0	0.0	302.0
03	ses-029	2	images_fmri/squirrel/squirrel_05n.jpg	unseen	7133	595	5	None	1530.0	21623.0	5.0	unseen-within	1	5	7.47	2.98	False	True	7.467859973665327	10.449822583701462	[['y', 8.958333664573729]]	-2.0	unseen	False	True	1.4883336645737293	2.9819626100361347	1.0	1.0	3782158.1792	False		False			
03	ses-029	3	images_fmri/tiramisu/tiramisu_05s.jpg	unseen	7733	645	5	None	1664.0	23484.0	5.0	unseen-within	1	5	11.94	2.98	False	False	11.934335212688891	14.91865392960608	[['y', 12.971669042948633]]	-2.0	unseen	False	True	1.031669042948634	2.984318716917187	1.0	2.0	3782162.6457	False		False			
03	ses-029	4	images_fmri/bench/bench_05s.jpg	seen	593	50	5	None	121.0	1847.0	5.0	seen-between	2	5	16.41	2.98	True	False	16.400824961718172	19.383027753792703	[['y', 18.564808047842234], ['x', 18.939474520739168]]	1.0	seen	False	False	2.1548080478422342	2.9822027920745318	1.0	3.0	3782167.1122	False		False	7.0	0.0	545.0
03	ses-029	5	images_fmri/motorcycle/motorcycle_05s.jpg	seen	4925	411	5	None	1026.0	14621.0	5.0	seen-between	2	5	20.88	2.98	False	False	20.868276675697416	23.850565706845373	[['x', 22.435359867755324], ['a', 24.02697444567457]]	2.0	seen	False	True	1.5553598677553246	2.982289031147957	1.0	4.0	3782171.5797	False		False	7.0	0.0	544.0
03	ses-029	6	images_fmri/weasel/weasel_05n.jpg	seen	8393	700	5	None	1798.0	25329.0	5.0	seen-between-within	3	5	25.35	2.98	False	True	25.35096324281767	28.3171265469864	[['b', 26.862633598968387]]	2.0	seen	False	True	1.5126335989683852	2.966163304168731	1.0	5.0	3782176.0623	False		False	0.0	171.17449999973178	19.0
03	ses-029	7	images_fmri/bow2/bow2_05s.jpg	unseen	881	74	5	None	176.0	2682.0	5.0	unseen-between	1	5	29.82	2.98	True	True	29.82257824484259	32.804180793929845	[['b', 31.06456727301702]]	2.0	seen	True	True	1.2445672730170187	2.981602549087256	1.0	6.0	3782180.5340	False		False			
03	ses-029	8	images_fmri/grits/grits_05s.jpg	unseen	3473	290	5	None	718.0	10291.0	5.0	unseen-between	1	5	34.29	2.98	False	False	34.28908406570554	37.266890342812985	[['y', 36.87645670957863]]	-2.0	unseen	False	True	2.586456709578634	2.9778062771074474	1.0	7.0	3782185.0005	False		False			
03	ses-029	9	images_fmri/chinchilla/chinchilla_05s.jpg	unseen	1709	143	5	None	333.0	4813.0	5.0	unseen-between	1	5	38.76	2.98	True	False	38.75327949691564	41.73367418395355	[['a', 40.26811970770359]]	-2.0	unseen	False	True	1.5081197077035924	2.980394687037915	1.0	8.0	3782189.4647	False		False			
03	ses-029	10	images_fmri/manhole/manhole_05n.jpg	seen	4613	385	5	None	968.0	13797.0	5.0	seen-between	2	5	43.23	2.98	False	False	43.23707056697458	46.19999058591202	[['x', 45.096022515557706]]	2.0	seen	False	True	1.8660225155577093	2.9629200189374387	1.0	9.0	3782193.9484	False		False	7.0	0.0	533.0
03	ses-029	11	images_fmri/crank/crank_05s.jpg	seen	2129	178	5	None	433.0	6254.0	5.0	seen-within	2	5	47.7	2.98	False	True	47.703092138748616	50.666483014822006	[['b', 49.66745231766254]]	2.0	seen	False	True	1.9674523176625345	2.9633908760733902	1.0	10.0	3782198.4145	False		False	0.0	702.3966999999247	115.0
03	ses-029	12	images_fmri/tiramisu/tiramisu_05s.jpg	seen	7733	645	5	None	1664.0	23484.0	5.0	seen-within	2	5	52.17	2.98	False	False	52.17215813184157	55.15423420071602	[['x', 53.15449869586155]]	2.0	seen	False	True	0.9844986958615464	2.9820760688744485	1.0	11.0	3782202.8835	False		False	0.0	40.23779999976978	9.0
03	ses-029	13	images_fmri/ski_pole/ski_pole_05s.jpg	seen	6809	568	5	None	1456.0	20645.0	5.0	seen-within-between	3	5	56.64	2.98	False	False	56.63416978158057	59.61635083472356	[['a', 58.83772154385224]]	1.0	seen	False	False	2.1977215438522397	2.982181053142994	1.0	12.0	3782207.3455	False		False	7.0	0.0	458.0
03	ses-029	14	images_fmri/helmet/helmet_05s.jpg	seen	3749	313	5	None	777.0	11128.0	5.0	seen-between-within	3	5	61.11	2.98	False	True	61.10031627956778	64.08475017687306	[['b', 62.11043068161234]]	2.0	seen	False	True	1.0004306816123432	2.98443389730528	1.0	13.0	3782211.8117	False		False	0.0	702.3952999999747	115.0
03	ses-029	15	images_fmri/guitar/guitar_05s.jpg	unseen	3533	295	5	None	724.0	10386.0	5.0	unseen-within	1	5	65.58	2.98	True	False	65.58578887861222	68.54944688687101	[['a', 67.15546898590401]]	-2.0	unseen	False	True	1.57546898590401	2.9636580082587898	1.0	14.0	3782216.2972	False		False			
03	ses-029	16	images_fmri/carousel/carousel_05s.jpg	unseen	1433	120	5	None	276.0	4051.0	5.0	unseen-within	1	5	70.05	2.98	True	True	70.05313996085897	73.03258256195113	[['a', 71.44874404557049], ['a', 72.65707141859457], ['a', 73.15910790162161]]	-2.0	unseen	False	True	1.3987440455704956	2.97944260109216	1.0	15.0	3782220.7645	False		False			
03	ses-029	17	images_fmri/pickle/pickle_05s.jpg	unseen	5549	463	5	None	1168.0	16615.0	5.0	unseen-between	1	5	74.52	2.98	True	False	74.5158493029885	77.49908668082207	[['a', 76.57127370592207]]	-2.0	unseen	False	True	2.051273705922071	2.983237377833575	1.0	16.0	3782225.2272	False		False			
03	ses-029	18	images_fmri/piano/piano_05n.jpg	seen	5537	462	5	None	1166.0	16590.0	5.0	seen-between	2	5	78.99	2.98	False	False	78.98789198696613	81.96559652499855	[['y', 80.14151227893308]]	-2.0	unseen	True	True	1.1515122789330832	2.9777045380324125	1.0	17.0	3782229.6993	False		False	7.0	0.0	402.0
03	ses-029	19	images_fmri/paperclip/paperclip_05s.jpg	seen	5345	446	5	None	1117.0	15887.0	5.0	seen-between	2	5	83.46	2.98	True	True	83.45286237681285	86.43239717558026	[['a', 84.84730840893462]]	-2.0	unseen	True	True	1.3873084089346293	2.9795347987674177	1.0	18.0	3782234.1642	False		False	7.0	0.0	594.0
03	ses-029	20	images_fmri/pocket/pocket_05s.jpg	unseen	5753	480	5	None	1206.0	17135.0	5.0	unseen-within	1	5	87.92999999999998	2.98	False	False	87.93607892701402	90.89920066762716	[['y', 88.98735259380192]]	-2.0	unseen	False	True	1.0573525938019372	2.9631217406131327	1.0	19.0	3782238.6475	False		False			
03	ses-029	21	images_fmri/tongue/tongue_05s.jpg	seen	7817	652	5	None	1676.0	23658.0	5.0	seen-between-within	3	5	92.4	2.98	True	False	92.40281531587245	95.38189578196034	[['y', 94.6831162716262]]	1.0	seen	False	False	2.2831162716261986	2.979080466087908	1.0	20.0	3782243.1142	False		False	0.0	742.6297000003979	124.0
03	ses-029	22	images_fmri/petal/petal_05s.jpg	unseen	5513	460	5	None	1159.0	16490.0	5.0	unseen-within	1	5	96.87	2.98	True	True	96.86986670596524	99.84844919061288	[['a', 99.2880394635722]]	-2.0	unseen	False	True	2.4180394635722	2.978582484647632	1.0	21.0	3782247.5812	False		False			
03	ses-029	23	images_fmri/zucchini/zucchini_05s.jpg	seen	8633	720	5	None	1854.0	26099.0	5.0	seen-between-within	3	5	101.34	2.98	True	True	101.3363865329884	104.31986517971382	[['b', 102.19698128197342]]	2.0	seen	False	True	0.8569812819734182	2.983478646725416	1.0	22.0	3782252.0478	False		False	0.0	98.33399999979883	22.0
03	ses-029	24	images_fmri/contact_lens/contact_lens_05s.jpg	seen	1997	167	5	None	398.0	5722.0	5.0	seen-between-within	3	5	105.81	2.98	True	True	105.803352358751	108.78294485993683	[['b', 106.76231643697247]]	2.0	seen	False	True	0.9523164369724668	2.9795925011858344	1.0	23.0	3782256.5147	False		False	0.0	1020.408400000073	163.0
03	ses-029	25	images_fmri/piano/piano_05n.jpg	seen	5537	462	5	None	1166.0	16590.0	5.0	seen-between-within	3	5	110.28	2.98	True	False	110.28475523879752	113.24974764883518	[['x', 111.29509446164593]]	2.0	seen	False	True	1.01509446164593	2.9649924100376666	1.0	24.0	3782260.9961	False		False	0.0	31.296800000127405	7.0
03	ses-029	26	images_fmri/popsicle/popsicle_05s.jpg	unseen	5837	487	5	None	1226.0	17445.0	5.0	unseen-within	1	5	114.75	2.98	True	False	114.74893375393005	117.73153917957096	[['a', 116.7349673518911]]	-2.0	unseen	False	True	1.9849673518911004	2.9826054256409407	1.0	25.0	3782265.4603	False		False			
03	ses-029	27	images_fmri/crutch/crutch_05s.jpg	seen	2249	188	5	None	453.0	6547.0	5.0	seen-within-between	3	5	119.22	2.98	True	False	119.21567565668374	122.19804823491722	[['a', 120.8513129139319]]	-2.0	unseen	True	True	1.6313129139319074	2.9823725782334805	1.0	26.0	3782269.9271	False		False	7.0	0.0	313.0
03	ses-029	28	images_fmri/manhole/manhole_05n.jpg	seen	4613	385	5	None	968.0	13797.0	5.0	seen-between-within	3	5	123.69	2.98	False	True	123.68640573462471	126.66449376987292	[['b', 124.90667362976819]]	2.0	seen	False	True	1.216673629768195	2.97808803524822	1.0	27.0	3782274.3978	False		False	0.0	80.44939999980852	18.0
03	ses-029	29	images_fmri/kangaroo/kangaroo_05s.jpg	unseen	4073	340	5	None	863.0	12337.0	5.0	unseen-between	1	5	128.16	2.98	True	True	128.14855873957276	131.13233307376504	[['x', 130.9259020187892]]	-1.0	unseen	False	False	2.7659020187892054	2.983774334192276	1.0	28.0	3782278.8599	False		False			
03	ses-029	30	images_fmri/undershirt/undershirt_05s.jpg	seen	8129	678	5	None	1745.0	24597.0	5.0	seen-within	2	5	132.63	2.98	False	True	132.63093094574288	135.60169058386236	[['b', 133.63996920501813]]	2.0	seen	False	True	1.0099692050181377	2.970759638119489	1.0	29.0	3782283.3423	False		False	0.0	1345.282399999909	214.0
03	ses-029	31	images_fmri/hammer/hammer_05n.jpg	seen	3593	300	5	None	742.0	10635.0	5.0	seen-within-between	3	5	137.1	2.98	False	False	137.0986449578777	140.0807536789216	[['y', 138.80389487883076], ['b', 140.181701797992]]	-2.0	unseen	True	True	1.7038948788307664	2.9821087210439146	1.0	30.0	3782287.8100	False		False	7.0	0.0	477.0
03	ses-029	32	images_fmri/dustpan/dustpan_05s.jpg	seen	2657	222	5	None	536.0	7780.0	5.0	seen-within-between	3	5	141.57	2.98	False	False	141.5640099896118	144.54722475958988	[['b', 143.06579078966752]]	-1.0	unseen	True	False	1.4957907896675238	2.983214769978076	1.0	31.0	3782292.2754	False		False	7.0	0.0	412.0
03	ses-029	33	images_fmri/wrench/wrench_05s.jpg	seen	8597	717	5	None	1842.0	25932.0	5.0	seen-between	2	5	146.04	2.98	True	False	146.03476559184492	149.01384302973747	[['a', 147.34987908881158]]	-2.0	unseen	True	True	1.3098790888115843	2.979077437892556	1.0	32.0	3782296.7461	False		False	7.0	0.0	342.0
03	ses-029	34	images_fmri/match/match_05s.jpg	seen	4697	392	5	None	984.0	14024.0	5.0	seen-within-between	3	5	150.51	2.98	False	True	150.49805121077225	153.48033630801365	[['y', 152.19709335593507]]	-2.0	unseen	True	True	1.687093355935076	2.9822850972414017	1.0	33.0	3782301.2094	False		False	7.0	0.0	538.0
03	ses-029	35	images_fmri/bench/bench_05s.jpg	seen	593	50	5	None	121.0	1847.0	5.0	seen-between-within	3	5	154.98	2.98	False	True	154.98430484673008	157.95270317280665	[['b', 155.84273403184488]]	2.0	seen	False	True	0.8627340318448944	2.968398326076567	1.0	34.0	3782305.6957	False		False	0.0	138.58350000018254	31.0
03	ses-029	36	images_fmri/scorpion/scorpion_05s.jpg	unseen	6545	546	5	None	1385.0	19668.0	5.0	unseen-between	1	5	159.45	2.98	True	True	159.44932179898024	162.43348156567663	[['a', 162.44100639177486]]	-2.0	unseen	False	True	2.9910063917748744	2.984159766696393	1.0	35.0	3782310.1607	False		False			
03	ses-029	37	images_fmri/banana_split/banana_split_05s.jpg	unseen	365	31	5	None	66.0	982.0	5.0	unseen-between	1	5	163.92	2.98	True	True	163.91379016870633	166.89703599968925	[['a', 165.87353498395532]]	-2.0	unseen	False	True	1.953534983955336	2.9832458309829235	1.0	36.0	3782314.6252	False		False			
03	ses-029	38	images_fmri/locker/locker_05s.jpg	seen	4505	376	5	None	942.0	13446.0	5.0	seen-within	2	5	168.39	2.98	True	True	168.38159429561347	171.3635410196148	[['a', 170.33799628401175]]	-2.0	unseen	True	True	1.947996284011765	2.981946724001318	1.0	37.0	3782319.0930	False		False	0.0	1577.7081999997608	266.0
03	ses-029	39	images_fmri/goat/goat_05n.jpg	seen	3305	276	5	None	685.0	9806.0	5.0	seen-within-between	3	5	172.86	2.98	True	False	172.85192302567884	175.8302151709795	[['y', 174.5916891838424]]	1.0	seen	False	False	1.7316891838423771	2.978292145300657	1.0	38.0	3782323.5633	False		False	7.0	0.0	533.0
03	ses-029	40	images_fmri/giraffe/giraffe_05s.jpg	unseen	3245	271	5	None	676.0	9675.0	5.0	unseen-between	1	5	177.32999999999996	2.98	False	True	177.3338119466789	180.2966431248933	[['y', 178.59459811076522]]	-2.0	unseen	False	True	1.264598110765263	2.962831178214401	1.0	39.0	3782328.0452	False		False			
03	ses-029	41	images_fmri/thermometer/thermometer_05s.jpg	seen	7637	637	5	None	1647.0	23257.0	5.0	seen-within-between	3	5	181.8	2.98	False	False	181.79771782970056	184.78022027993572	[['a', 183.7458141548559]]	1.0	seen	False	False	1.945814154855896	2.982502450235188	1.0	40.0	3782332.5091	False		False	7.0	0.0	324.0
03	ses-029	42	images_fmri/chandelier/chandelier_05s.jpg	unseen	1589	133	5	None	306.0	4458.0	5.0	unseen-between	1	5	186.27	2.98	False	False	186.26433342974636	189.246600123588	[['a', 188.32460692198947]]	1.0	seen	True	False	2.0546069219894605	2.982266693841666	1.0	41.0	3782336.9757	False		False			
03	ses-029	43	images_fmri/petal/petal_05s.jpg	seen	5513	460	5	None	1159.0	16490.0	5.0	seen-within	2	5	190.74	2.98	True	False	190.73055783566087	193.71308055799452	[['y', 192.40857654670253]]	1.0	seen	False	False	1.6685765467025249	2.9825227223336697	1.0	42.0	3782341.4419	False		False	0.0	93.86070000007749	21.0
03	ses-029	44	images_fmri/brace/brace_05s.jpg	seen	941	79	5	None	187.0	2830.0	5.0	seen-between-within	3	5	195.21	2.98	False	True	195.21689334092665	198.18429888691756	[['b', 196.14612603979185]]	2.0	seen	False	True	0.9361260397918444	2.967405545990914	1.0	43.0	3782345.9283	False		False	0.0	443.8548999996856	80.0
03	ses-029	45	images_fmri/lingerie/lingerie_05s.jpg	seen	4421	369	5	None	933.0	13324.0	5.0	seen-between	2	5	199.68	2.98	True	True	199.68355315783992	202.64624125463888	[['y', 201.86771029559895]]	1.0	seen	False	False	2.187710295598947	2.9626880967989564	1.0	44.0	3782350.3949	False		False	7.0	0.0	298.0
03	ses-029	46	images_fmri/breadstick/breadstick_05s.jpg	seen	1001	84	5	None	197.0	2984.0	5.0	seen-within	2	5	204.15	2.98	False	False	204.1474093985744	207.13102948991585	[['x', 205.03412543889135]]	2.0	seen	False	True	0.8841254388913455	2.983620091341436	1.0	45.0	3782354.8588	False		False	0.0	849.908100000117	148.0
03	ses-029	47	images_fmri/pumpkin/pumpkin_05s.jpg	unseen	6005	501	5	None	1254.0	17857.0	5.0	unseen-between	1	5	208.62	2.98	True	True	208.61787184793505	211.5966209806502	[['a', 209.58792540058494], ['a', 210.6420406587422]]	-2.0	unseen	False	True	0.9679254005849316	2.9787491327151656	1.0	46.0	3782359.3293	False		False			
03	ses-029	48	images_fmri/ladle/ladle_05s.jpg	seen	4205	351	5	None	888.0	12713.0	5.0	seen-within	2	5	213.09	2.98	True	True	213.0838429005817	216.0631620027125	[['a', 215.4889439479448], ['b', 216.12855738773942], ['b', 216.96001588366926]]	-2.0	unseen	True	True	2.3989439479447867	2.9793191021308303	1.0	47.0	3782363.7952	False		False	0.0	519.8251000000164	97.0
03	ses-029	49	images_fmri/popsicle/popsicle_05s.jpg	seen	5837	487	5	None	1226.0	17445.0	5.0	seen-within	2	5	217.56	2.98	False	False	217.56284844875336	220.52936990885064	[['x', 218.7726506376639]]	2.0	seen	False	True	1.2126506376638986	2.966521460097283	1.0	48.0	3782368.2742	False		False	0.0	102.81389999995008	23.0
03	ses-029	50	images_fmri/stopwatch/stopwatch_05s.jpg	unseen	7253	605	5	None	1563.0	22074.0	5.0	unseen-between	1	5	222.03	2.98	False	False	222.03330438677224	225.0127231669612	[['y', 223.57108295802027]]	-2.0	unseen	False	True	1.5410829580202687	2.9794187801890075	1.0	49.0	3782372.7447	False		False			
03	ses-029	51	images_fmri/necklace/necklace_05s.jpg	seen	5033	420	5	None	1055.0	15018.0	5.0	seen-within-between	3	5	226.5	2.98	False	True	226.5010497230105	229.4793114927597	[['y', 227.89386212965474]]	-2.0	unseen	True	True	1.393862129654735	2.978261769749224	1.0	50.0	3782377.2124	False		False	7.0	0.0	404.0
03	ses-029	52	images_fmri/dolphin/dolphin_05s.jpg	seen	2501	209	5	None	503.0	7265.0	5.0	seen-within	2	5	230.97	2.98	True	True	230.96302332589403	233.9459809185937	[['a', 232.21617678180337]]	-2.0	unseen	True	True	1.2461767818033709	2.9829575926996768	1.0	51.0	3782381.6744	False		False	0.0	1158.9832999999635	194.0
03	ses-029	53	images_fmri/pocket/pocket_05s.jpg	seen	5753	480	5	None	1206.0	17135.0	5.0	seen-within	2	5	235.44	2.98	False	False	235.43026421498507	238.4180560265668	[['x', 236.6598906875588]]	2.0	seen	False	True	1.2198906875588025	2.987791811581701	1.0	52.0	3782386.1416	False		False	0.0	147.49410000024363	33.0
03	ses-029	54	images_fmri/paperclip/paperclip_05s.jpg	seen	5345	446	5	None	1117.0	15887.0	5.0	seen-between-within	3	5	239.91	2.98	True	True	239.9160639238544	242.87901900801808	[['a', 241.42592775868252]]	-2.0	unseen	True	True	1.5159277586825226	2.962955084163696	1.0	53.0	3782390.6274	False		False	0.0	156.46320000011474	35.0
03	ses-029	55	images_fmri/table/table_05s.jpg	unseen	7481	624	5	None	1609.0	22729.0	5.0	unseen-within	1	5	244.38	2.98	True	True	244.3843520837836	247.362214140594	[['a', 245.62794541101903]]	-2.0	unseen	False	True	1.2479454110190318	2.977862056810409	1.0	54.0	3782395.0957	False		False			
03	ses-029	56	images_fmri/trowel/trowel_05s.jpg	seen	8009	668	5	None	1720.0	24247.0	5.0	seen-between-within	3	5	248.85	2.98	False	True	248.84894738998264	251.828813767992	[['y', 250.34920305479318]]	-2.0	unseen	True	True	1.4992030547931847	2.9798663780093197	1.0	55.0	3782399.5603	False		False	0.0	408.0759000000544	72.0
03	ses-029	57	images_fmri/motorcycle/motorcycle_05s.jpg	seen	4925	411	5	None	1026.0	14621.0	5.0	seen-between-within	3	5	253.32	2.98	True	False	253.317497107666	256.2997987489216	[['x', 254.20993033098057]]	2.0	seen	False	True	0.889930330980576	2.982301641255617	1.0	56.0	3782404.0289	False		False	0.0	232.4491999996826	52.0
03	ses-029	58	images_fmri/sombrero/sombrero_05s.jpg	unseen	6977	582	5	None	1496.0	21170.0	5.0	unseen-between	1	5	257.79	2.98	False	False	257.78454283298925	260.7621601228602	[['y', 259.36176906572655]]	-2.0	unseen	False	True	1.571769065726528	2.9776172898709774	1.0	57.0	3782408.4959	False		False			
03	ses-029	59	images_fmri/carousel/carousel_05s.jpg	seen	1433	120	5	None	276.0	4051.0	5.0	seen-within	2	5	262.26	2.98	True	True	262.2654928197153	265.2289163446985	[['b', 263.19211483281106], ['b', 264.24215867882594]]	2.0	seen	False	True	0.9321148328110668	2.9634235249832277	1.0	58.0	3782412.9769	False		False	0.0	192.21240000007674	43.0
03	ses-029	60	images_fmri/squirrel/squirrel_05n.jpg	seen	7133	595	5	None	1530.0	21623.0	5.0	seen-within	2	5	266.73	2.98	False	True	266.7336591328494	269.7151293409988	[['b', 267.914962220937]]	2.0	seen	False	True	1.1849622209369954	2.9814702081494038	1.0	59.0	3782417.4450	False		False	0.0	259.2657999997027	58.0
