subject	session	TrialNumber	image_path	condition	image_nr	category_nr	exemplar_nr	test_image_nr	things_category_nr	things_image_nr	things_exemplar_nr	subcondition	repetition	run	onset	duration	response_mapping_flip_h	response_mapping_flip_v	onset_flip	offset_flip	keypresses	response	response_txt	error	response_confidence	response_time	duration_flip	ran	order	session_trial_time	atypical	atypical_log	exclude_session	delay_days	delay_seconds	trials_since_lastrep
06	ses-003	1	images_fmri/koala/koala_05s.jpg	seen	4181	349	5	None	885.0	12670.0	5.0	seen-within-between	3	3	3.0	2.98	True	False	2.98157000541687	5.964686870574951	[['x', 5.5997278690338135]]	2.0	seen	False	True	2.599727869033813	2.983116865158081	1.0	0.0	1619638154.0007	False		False	7.0	0.0	336.0
06	ses-003	2	images_fmri/defibrillator/defibrillator_05s.jpg	unseen	2369	198	5	None	478.0	6915.0	5.0	unseen-within	1	3	7.47	2.98	False	True	7.447906017303467	10.43319582939148	[['y', 9.80265188217163]]	-2.0	unseen	False	True	2.332651882171631	2.9852898120880127	1.0	1.0	1619638158.4670	False		False			
06	ses-003	3	images_fmri/limousine/limousine_05s.jpg	seen	4409	368	5	None	932.0	13309.0	5.0	seen-between	2	3	11.94	2.98	True	False	11.917910814285278	14.898880004882812	[['x', 13.190052032470703]]	2.0	seen	False	True	1.2500520324707036	2.980969190597534	1.0	2.0	1619638162.9370	False		False	7.0	0.0	133.0
06	ses-003	4	images_fmri/shower/shower_05n.jpg	unseen	6713	560	5	None	1434.0	20331.0	5.0	unseen-within	1	3	16.41	2.98	False	True	16.385718822479248	19.36806893348694	[['y', 18.07675004005432]]	-2.0	unseen	False	True	1.6667500400543211	2.9823501110076904	1.0	3.0	1619638167.4049	False		False			
06	ses-003	5	images_fmri/seesaw/seesaw_05s.jpg	seen	6593	550	5	None	1403.0	19921.0	5.0	seen-within	2	3	20.88	2.98	True	True	20.861559867858887	23.844890832901	[['b', 22.093169927597046]]	2.0	seen	False	True	1.213169927597047	2.9833309650421143	1.0	4.0	1619638171.8807	False		False	0.0	592.2322001457214	78.0
06	ses-003	6	images_fmri/okra/okra_05s.jpg	seen	5153	430	5	None	1075.0	15285.0	5.0	seen-between	2	3	25.35	2.98	False	False	25.32863187789917	28.31133985519409	[['x', 26.618929862976074]]	2.0	seen	False	True	1.2689298629760728	2.982707977294922	1.0	5.0	1619638176.3478	False		False	7.0	0.0	457.0
06	ses-003	7	images_fmri/cauliflower/cauliflower_05s.jpg	seen	1505	126	5	None	289.0	4223.0	5.0	seen-between	2	3	29.82	2.98	True	False	29.795313835144043	32.77842092514038	[['x', 32.30198097229004]]	2.0	seen	False	True	2.481980972290039	2.983107089996338	1.0	6.0	1619638180.8144	False		False	7.0	0.0	184.0
06	ses-003	8	images_fmri/chip/chip_05s.jpg	unseen	1721	144	5	None	334.0	4828.0	5.0	unseen-within	1	3	34.29	2.98	False	False	34.261645793914795	37.24468493461609	[['y', 36.350541830062866]]	-2.0	unseen	False	True	2.060541830062867	2.983039140701294	1.0	7.0	1619638185.2808	False		False			
06	ses-003	9	images_fmri/bean/bean_05s.jpg	unseen	485	41	5	None	103.0	1548.0	5.0	unseen-between	1	3	38.76	2.98	False	False	38.74441885948181	41.713308811187744	[['y', 41.15762901306152]]	-2.0	unseen	False	True	2.397629013061525	2.9688899517059326	1.0	8.0	1619638189.7636	False		False			
06	ses-003	10	images_fmri/stiletto/stiletto_05s.jpg	unseen	7241	604	5	None	1555.0	21964.0	5.0	unseen-within	1	3	43.23	2.98	False	False	43.21595597267151	46.19622802734375	[['y', 45.60596299171448]]	-2.0	unseen	False	True	2.3759629917144807	2.980272054672241	1.0	9.0	1619638194.2351	False		False			
06	ses-003	11	images_fmri/highlighter/highlighter_05s.jpg	unseen	3761	314	5	None	779.0	11152.0	5.0	unseen-within	1	3	47.7	2.98	False	True	47.679919958114624	50.66337895393372	[['y', 49.470526933670044]]	-2.0	unseen	False	True	1.770526933670041	2.983458995819092	1.0	10.0	1619638198.6991	False		False			
06	ses-003	12	images_fmri/cauliflower/cauliflower_05s.jpg	seen	1505	126	5	None	289.0	4223.0	5.0	seen-between-within	3	3	52.17	2.98	False	False	52.14919900894165	55.13326787948608	[['x', 53.083295822143555]]	2.0	seen	False	True	0.913295822143553	2.9840688705444336	1.0	11.0	1619638203.1683	False		False	0.0	22.35389995574951	5.0
06	ses-003	13	images_fmri/defibrillator/defibrillator_05s.jpg	seen	2369	198	5	None	478.0	6915.0	5.0	seen-within	2	3	56.64	2.98	True	True	56.61656785011292	59.59913992881775	[['b', 58.89141392707825]]	2.0	seen	False	True	2.2514139270782465	2.982572078704834	1.0	12.0	1619638207.6357	False		False	0.0	49.168699979782104	11.0
06	ses-003	14	images_fmri/manatee/manatee_05s.jpg	seen	4577	382	5	None	965.0	13754.0	5.0	seen-within-between	3	3	61.11	2.98	True	True	61.09581398963928	64.07915091514587	[['b', 62.246469020843506]]	2.0	seen	False	True	1.1364690208435064	2.983336925506592	1.0	13.0	1619638212.1149	False		False	7.0	0.0	381.0
06	ses-003	15	images_fmri/sewing_kit/sewing_kit_05s.jpg	unseen	6605	551	5	None	1407.0	19972.0	5.0	unseen-within	1	3	65.58	2.98	False	True	65.56520795822144	68.54554486274719	[['y', 67.15539383888245]]	-2.0	unseen	False	True	1.575393838882448	2.980336904525757	1.0	14.0	1619638216.5843	False		False			
06	ses-003	16	images_fmri/lingerie/lingerie_05s.jpg	seen	4421	369	5	None	933.0	13324.0	5.0	seen-between	2	3	70.05	2.98	False	True	70.0294668674469	73.0111038684845	[['b', 72.45828890800476]]	2.0	seen	False	True	2.408288908004764	2.9816370010375977	1.0	15.0	1619638221.0486	False		False	7.0	0.0	166.0
06	ses-003	17	images_fmri/duster/duster_05s.jpg	unseen	2645	221	5	None	535.0	7768.0	5.0	unseen-between	1	3	74.52	2.98	False	True	74.49573993682861	77.4775218963623	[['y', 76.41154098510742]]	-2.0	unseen	False	True	1.8915409851074256	2.9817819595336914	1.0	16.0	1619638225.5149	False		False			
06	ses-003	18	images_fmri/cane/cane_05n.jpg	seen	1361	114	5	None	259.0	3810.0	5.0	seen-between	2	3	78.99	2.98	False	True	78.9621160030365	81.94585084915161	[['b', 80.94110202789307]]	2.0	seen	False	True	1.9511020278930715	2.9837348461151123	1.0	17.0	1619638229.9812	False		False	7.0	0.0	207.0
06	ses-003	19	images_fmri/petal/petal_05s.jpg	seen	5513	460	5	None	1159.0	16490.0	5.0	seen-within-between	3	3	83.46	2.98	False	False	83.44428992271423	86.427414894104	[['x', 85.59249591827393]]	2.0	seen	False	True	2.132495918273932	2.9831249713897705	1.0	18.0	1619638234.4634	False		False	7.0	0.0	205.0
06	ses-003	20	images_fmri/cat/cat_05s.jpg	seen	1481	124	5	None	285.0	4166.0	5.0	seen-between	2	3	87.92999999999998	2.98	True	True	87.9106228351593	90.89892292022704	[['b', 89.09225797653198]]	2.0	seen	False	True	1.162257976532004	2.988300085067749	1.0	19.0	1619638238.9298	False		False	7.0	0.0	313.0
06	ses-003	21	images_fmri/crown/crown_05n.jpg	seen	2237	187	5	None	449.0	6499.0	5.0	seen-between-within	3	3	92.4	2.98	True	True	92.38108682632446	95.365473985672	[['b', 93.53755903244019]]	2.0	seen	False	True	1.13755903244018	2.984387159347534	1.0	20.0	1619638243.4002	False		False	0.0	478.9076998233795	78.0
06	ses-003	22	images_fmri/sewing_kit/sewing_kit_05s.jpg	seen	6605	551	5	None	1407.0	19972.0	5.0	seen-within	2	3	96.87	2.98	True	False	96.84823489189148	99.83255887031557	[['x', 97.94142699241638]]	2.0	seen	False	True	1.0714269924163773	2.9843239784240723	1.0	21.0	1619638247.8674	False		False	0.0	31.28309988975525	7.0
06	ses-003	23	images_fmri/tadpole/tadpole_05s.jpg	seen	7517	627	5	None	1615.0	22805.0	5.0	seen-between-within	3	3	101.34	2.98	False	True	101.31273484230042	104.29918694496156	[['b', 102.20498299598694]]	2.0	seen	False	True	0.8649829959869351	2.986452102661133	1.0	22.0	1619638252.3319	False		False	0.0	295.62659978866577	37.0
06	ses-003	24	images_fmri/sonogram/sonogram_05s.jpg	seen	6989	583	5	None	1497.0	21182.0	5.0	seen-within-between	3	3	105.81	2.98	False	True	105.7962930202484	108.762051820755	[['b', 107.3478569984436]]	2.0	seen	False	True	1.5378569984436012	2.965758800506592	1.0	23.0	1619638256.8154	False		False	7.0	0.0	147.0
06	ses-003	25	images_fmri/cat/cat_05s.jpg	seen	1481	124	5	None	285.0	4166.0	5.0	seen-between-within	3	3	110.28	2.98	True	False	110.26264786720276	113.2434628009796	[['x', 111.08246684074402]]	2.0	seen	False	True	0.8024668407440174	2.9808149337768555	1.0	24.0	1619638261.2818	False		False	0.0	22.35199999809265	5.0
06	ses-003	26	images_fmri/mushroom/mushroom_05n.jpg	seen	4985	416	5	None	1041.0	14830.0	5.0	seen-within-between	3	3	114.75	2.98	True	False	114.72918796539308	117.71024179458618	[['x', 116.55296182632446]]	2.0	seen	False	True	1.802961826324463	2.9810538291931152	1.0	25.0	1619638265.7483	False		False	7.0	0.0	174.0
06	ses-003	27	images_fmri/walker1/walker1_05s.jpg	unseen	8249	688	5	None	1774.0	25011.0	5.0	unseen-within	1	3	119.22	2.98	True	False	119.1952829360962	122.17804098129272	[['a', 122.10036396980286]]	-2.0	unseen	False	True	2.8803639698028576	2.982758045196533	1.0	26.0	1619638270.2144	False		False			
06	ses-003	28	images_fmri/kale/kale_05s.jpg	unseen	4061	339	5	None	861.0	12310.0	5.0	unseen-between	1	3	123.69	2.98	True	False	123.6766278743744	126.64364886283876	[['a', 125.27377796173096]]	-2.0	unseen	False	True	1.5837779617309593	2.9670209884643555	1.0	27.0	1619638274.6958	False		False			
06	ses-003	29	images_fmri/hip/hip_05s.jpg	seen	3773	315	5	None	781.0	11176.0	5.0	seen-within-between	3	3	128.16	2.98	False	False	128.14297485351562	131.110848903656	[['x', 130.30595588684082]]	2.0	seen	False	True	2.145955886840824	2.967874050140381	1.0	28.0	1619638279.1621	False		False	7.0	0.0	339.0
06	ses-003	30	images_fmri/helmet/helmet_05s.jpg	unseen	3749	313	5	None	777.0	11128.0	5.0	unseen-between	1	3	132.63	2.98	True	False	132.61107683181763	135.59426283836365	[['x', 135.05015301704407]]	2.0	seen	True	True	2.420153017044072	2.9831860065460205	1.0	29.0	1619638283.6302	False		False			
06	ses-003	31	images_fmri/speaker/speaker_05s.jpg	seen	7049	588	5	None	1510.0	21354.0	5.0	seen-between-within	3	3	137.1	2.98	True	False	137.08175086975098	140.06399488449097	[['x', 139.8797459602356]]	2.0	seen	False	True	2.7797459602356014	2.9822440147399902	1.0	30.0	1619638288.1009	False		False	0.0	882.782399892807	143.0
06	ses-003	32	images_fmri/garter/garter_05s.jpg	seen	3197	267	5	None	660.0	9479.0	5.0	seen-between	2	3	141.57	2.98	True	False	141.54464602470398	144.52597284317017	[['x', 142.57876682281494]]	2.0	seen	False	True	1.0087668228149482	2.9813268184661865	1.0	31.0	1619638292.5638	False		False	7.0	0.0	185.0
06	ses-003	33	images_fmri/dog/dog_05s.jpg	unseen	2453	205	5	None	496.0	7168.0	5.0	unseen-between	1	3	146.04	2.98	True	False	146.01050996780396	148.99448800086975	[['b', 149.3396828174591]]	-1.0	unseen	False	False	3.2996828174591144	2.983978033065796	1.0	32.0	1619638297.0296	False		False			
06	ses-003	34	images_fmri/drawer/drawer_05s.jpg	seen	2585	216	5	None	517.0	7505.0	5.0	seen-between	2	3	150.51	2.98	False	True	150.4925799369812	153.47587299346924	[['b', 153.28287887573242]]	2.0	seen	False	True	2.772878875732431	2.983293056488037	1.0	33.0	1619638301.5117	False		False	7.0	0.0	362.0
06	ses-003	35	images_fmri/stiletto/stiletto_05s.jpg	seen	7241	604	5	None	1555.0	21964.0	5.0	seen-within	2	3	154.98	2.98	False	True	154.95898699760437	157.9424409866333	[['b', 156.046728849411]]	2.0	seen	False	True	1.066728849411021	2.9834539890289307	1.0	34.0	1619638305.9781	False		False	0.0	111.74300003051758	25.0
06	ses-003	36	images_fmri/earring/earring_05s.jpg	unseen	2669	223	5	None	541.0	7852.0	5.0	unseen-between	1	3	159.45	2.98	False	False	159.4273087978363	162.41007280349731	[['x', 161.42870783805847]]	2.0	seen	True	True	1.978707838058483	2.9827640056610107	1.0	35.0	1619638310.4464	False		False			
06	ses-003	37	images_fmri/monkey/monkey_05s.jpg	unseen	4853	405	5	None	1018.0	14501.0	5.0	unseen-within	1	3	163.92	2.98	False	True	163.90890979766846	166.87722301483154	[['y', 165.66168093681335]]	-2.0	unseen	False	True	1.741680936813367	2.968313217163086	1.0	36.0	1619638314.9280	False		False			
06	ses-003	38	images_fmri/train/train_05s.jpg	seen	7925	661	5	None	1699.0	23972.0	5.0	seen-within-between	3	3	168.39	2.98	False	False	168.36065888404846	171.34336400032043	[['x', 170.63892793655396]]	2.0	seen	False	True	2.2489279365539687	2.9827051162719727	1.0	37.0	1619638319.3798	False		False	7.0	0.0	493.0
06	ses-003	39	images_fmri/walker1/walker1_05s.jpg	seen	8249	688	5	None	1774.0	25011.0	5.0	seen-within	2	3	172.86	2.98	False	False	172.84202790260315	175.82521295547485	[['x', 173.79130697250366]]	2.0	seen	False	True	0.9313069725036484	2.983185052871704	1.0	38.0	1619638323.8612	False		False	0.0	53.64680004119873	12.0
06	ses-003	40	images_fmri/boa/boa_05s.jpg	seen	785	66	5	None	151.0	2304.0	5.0	seen-between	2	3	177.32999999999996	2.98	False	True	177.30963397026062	180.2937409877777	[['b', 180.4987199306488]]	2.0	seen	False	True	3.168719930648848	2.98410701751709	1.0	39.0	1619638328.3288	False		False	7.0	0.0	183.0
06	ses-003	41	images_fmri/tab/tab_05s.jpg	unseen	7469	623	5	None	1608.0	22715.0	5.0	unseen-between	1	3	181.8	2.98	True	True	181.78081488609317	184.7597939968109	[['a', 183.50153589248657]]	-2.0	unseen	False	True	1.701535892486561	2.978979110717773	1.0	40.0	1619638332.7999	False		False			
06	ses-003	42	images_fmri/copier/copier_05s.jpg	seen	2021	169	5	None	406.0	5835.0	5.0	seen-within	2	3	186.27	2.98	False	True	186.24752593040463	189.22955584526065	[['b', 187.3666799068451]]	2.0	seen	False	True	1.0966799068450823	2.982029914855957	1.0	41.0	1619638337.2667	False		False	0.0	815.7293999195099	128.0
06	ses-003	43	images_fmri/bird/bird_05s.jpg	seen	641	54	5	None	129.0	1975.0	5.0	seen-within-between	3	3	190.74	2.98	False	True	190.72800397872925	193.70935082435608	[['b', 192.24761486053467]]	2.0	seen	False	True	1.5076148605346589	2.981346845626831	1.0	42.0	1619638341.7471	False		False	7.0	0.0	396.0
06	ses-003	44	images_fmri/powder/powder_05s.jpg	seen	5921	494	5	None	1237.0	17594.0	5.0	seen-within	2	3	195.21	2.98	True	True	195.1976809501648	198.17578887939453	[['b', 196.13566899299622]]	2.0	seen	False	True	0.925668992996208	2.9781079292297363	1.0	43.0	1619638346.2168	False		False	0.0	447.6289999485016	71.0
06	ses-003	45	images_fmri/doll/doll_05s.jpg	seen	2465	206	5	None	500.0	7223.0	5.0	seen-between-within	3	3	199.68	2.98	True	True	199.6641948223114	202.6425759792328	[['b', 200.57766890525818]]	2.0	seen	False	True	0.8976689052581719	2.9783811569213867	1.0	44.0	1619638350.6833	False		False	0.0	425.26230001449585	66.0
06	ses-003	46	images_fmri/blind/blind_05s.jpg	unseen	749	63	5	None	141.0	2145.0	5.0	unseen-within	1	3	204.15	2.98	True	False	204.1306669712067	207.10964679718015	[['x', 206.35167789459229]]	2.0	seen	True	True	2.2016778945922795	2.9789798259735107	1.0	45.0	1619638355.1498	False		False			
06	ses-003	47	images_fmri/bubble/bubble_05s.jpg	unseen	1061	89	5	None	208.0	3133.0	5.0	unseen-between	1	3	208.62	2.98	False	False	208.5920548439026	211.57534098625183	[['x', 210.77353882789612]]	2.0	seen	True	True	2.1535388278961136	2.983286142349243	1.0	46.0	1619638359.6112	False		False			
06	ses-003	48	images_fmri/ski_pole/ski_pole_05s.jpg	seen	6809	568	5	None	1456.0	20645.0	5.0	seen-between-within	3	3	213.09	2.98	True	False	213.07432389259336	216.04324793815613	[['x', 213.9335880279541]]	2.0	seen	False	True	0.8435880279540982	2.968924045562744	1.0	47.0	1619638364.0935	False		False	0.0	604.0680999755859	106.0
06	ses-003	49	images_fmri/blind/blind_05s.jpg	seen	749	63	5	None	141.0	2145.0	5.0	seen-within	2	3	217.56	2.98	True	True	217.5429928302765	220.52422881126404	[['b', 219.43145895004272]]	2.0	seen	False	True	1.8714589500427223	2.981235980987549	1.0	48.0	1619638368.5621	False		False	0.0	13.412299871444702	3.0
06	ses-003	50	images_fmri/cinnamon/cinnamon_05s.jpg	unseen	1769	148	5	None	349.0	5051.0	5.0	unseen-between	1	3	222.03	2.98	True	True	222.00956988334656	224.99072289466855	[['b', 223.3253128528595]]	2.0	seen	True	True	1.295312852859496	2.981153011322021	1.0	49.0	1619638373.0287	False		False			
06	ses-003	51	images_fmri/wire/wire_05s.jpg	unseen	8513	710	5	None	1829.0	25760.0	5.0	unseen-between	1	3	226.5	2.98	True	False	226.4792377948761	229.4582459926605	[['a', 228.57248401641846]]	-2.0	unseen	False	True	2.072484016418457	2.979008197784424	1.0	50.0	1619638377.4984	False		False			
06	ses-003	52	images_fmri/tweezers/tweezers_05s.jpg	seen	8081	674	5	None	1740.0	24526.0	5.0	seen-within-between	3	3	230.97	2.98	True	False	230.94498300552368	233.9258809089661	[['x', 233.31172895431519]]	2.0	seen	False	True	2.3417289543151867	2.980897903442383	1.0	51.0	1619638381.9641	False		False	7.0	0.0	172.0
06	ses-003	53	images_fmri/camcorder/camcorder_05s.jpg	unseen	1265	106	5	None	245.0	3631.0	5.0	unseen-within	1	3	235.44	2.98	False	False	235.42496180534363	238.3949580192566	[['y', 237.7542839050293]]	-2.0	unseen	False	True	2.314283905029299	2.969996213912964	1.0	52.0	1619638386.4441	False		False			
06	ses-003	54	images_fmri/shell2/shell2_05s.jpg	seen	6641	554	5	None	1419.0	20131.0	5.0	seen-within	2	3	239.91	2.98	True	False	239.89457082748413	242.87501287460327	[['x', 240.94689393043518]]	2.0	seen	False	True	1.036893930435184	2.9804420471191406	1.0	53.0	1619638390.9137	False		False	0.0	779.9853000640869	120.0
06	ses-003	55	images_fmri/garter/garter_05s.jpg	seen	3197	267	5	None	660.0	9479.0	5.0	seen-between-within	3	3	244.38	2.98	False	True	244.35804390907288	247.3423218727112	[['b', 245.6170518398285]]	2.0	seen	False	True	1.2370518398284958	2.9842779636383057	1.0	54.0	1619638395.3772	False		False	0.0	102.81339979171753	23.0
06	ses-003	56	images_fmri/lingerie/lingerie_05s.jpg	seen	4421	369	5	None	933.0	13324.0	5.0	seen-between-within	3	3	248.85	2.98	True	True	248.82538294792172	251.80914783477783	[['b', 250.21315097808838]]	2.0	seen	False	True	1.3631509780883846	2.983764886856079	1.0	55.0	1619638399.8445	False		False	0.0	178.79590010643005	40.0
06	ses-003	57	images_fmri/towel/towel_05s.jpg	seen	7889	658	5	None	1693.0	23886.0	5.0	seen-between	2	3	253.32	2.98	False	True	253.3072578907013	256.2757468223572							2.968488931655884	1.0	56.0	1619638404.3264	False		False	7.0	0.0	223.0
06	ses-003	58	images_fmri/eggbeater/eggbeater_05s.jpg	seen	2729	228	5	None	549.0	7966.0	5.0	seen-within-between	3	3	257.79	2.98	True	True	257.77503395080566	260.7409589290619	[['b', 258.9144480228424]]	2.0	seen	False	True	1.1244480228423868	2.9659249782562256	1.0	57.0	1619638408.7942	False		False	7.0	0.0	295.0
06	ses-003	59	images_fmri/game/game_05s.jpg	seen	3149	263	5	None	655.0	9411.0	5.0	seen-within	2	3	262.26	2.98	True	True	262.23975801467896	265.2230830192566	[['b', 264.0371479988098]]	2.0	seen	False	True	1.7771479988098235	2.9833250045776367	1.0	58.0	1619638413.2589	False		False	0.0	505.7212998867035	84.0
06	ses-003	60	images_fmri/limousine/limousine_05s.jpg	seen	4409	368	5	None	932.0	13309.0	5.0	seen-between-within	3	3	266.73	2.98	False	False	266.70798897743225	269.6909658908844	[['x', 268.266273021698]]	2.0	seen	False	True	1.53627302169798	2.9829769134521484	1.0	59.0	1619638417.7271	False		False	0.0	254.79009985923767	57.0
