subject	session	TrialNumber	image_path	condition	image_nr	category_nr	exemplar_nr	test_image_nr	things_category_nr	things_image_nr	things_exemplar_nr	subcondition	repetition	run	onset	duration	response_mapping_flip_h	response_mapping_flip_v	onset_flip	offset_flip	keypresses	response	response_txt	error	response_confidence	response_time	duration_flip	ran	order	session_trial_time	atypical	atypical_log	exclude_session	delay_days	delay_seconds	trials_since_lastrep
03	ses-016	1	images_fmri/lectern/lectern_06s.jpg	unseen	4278	357	6	None	909.0	13003.0	6.0	unseen-between	1	4	3.0	2.98	False	False	3.0017199516296387	5.966425895690918	[['y', 4.624161958694458]]	-2.0	unseen	False	True	1.624161958694458	2.9647059440612797	1.0	0.0	1629913882.8235	False		False			
03	ses-016	2	images_fmri/tiger/tiger_06s.jpg	seen	7722	644	6	None	1660.0	23432.0	6.0	seen-between	2	4	7.47	2.98	False	False	7.473144054412842	10.45217490196228	[['x', 8.74979305267334]]	2.0	seen	False	True	1.27979305267334	2.9790308475494385	1.0	1.0	1629913887.2949	False		False	7.0	0.0	500.0
03	ses-016	3	images_fmri/lion/lion_06s.jpg	seen	4434	370	6	None	934.0	13337.0	6.0	seen-between	2	4	11.94	2.98	True	False	11.936619997024536	14.91872501373291	[['y', 14.1996328830719]]	1.0	seen	False	False	2.2596328830719	2.982105016708374	1.0	2.0	1629913891.7584	False		False	7.0	0.0	475.0
03	ses-016	4	images_fmri/lemon/lemon_06s.jpg	seen	4326	361	6	None	915.0	13085.0	6.0	seen-between	2	4	16.41	2.98	False	True	16.400614023208618	19.38536500930786	[['x', 18.403555870056152]]	-1.0	unseen	True	False	1.993555870056152	2.984750986099243	1.0	3.0	1629913896.2224	False		False	7.0	0.0	395.0
03	ses-016	5	images_fmri/goat/goat_06n.jpg	unseen	3306	276	6	None	685.0	9807.0	6.0	unseen-within	1	4	20.88	2.98	False	False	20.872276067733765	23.85128903388977	[['b', 22.719855070114136]]	-1.0	unseen	False	False	1.8398550701141367	2.979012966156006	1.0	4.0	1629913900.6941	False		False			
03	ses-016	6	images_fmri/doll/doll_06s.jpg	seen	2466	206	6	None	500.0	7224.0	6.0	seen-between-within	3	4	25.35	2.98	False	True	25.35164904594421	28.321457862854004	[['b', 26.434460878372192]]	2.0	seen	False	True	1.084460878372191	2.96980881690979	1.0	5.0	1629913905.1734	False		False	0.0	608.265499830246	91.0
03	ses-016	7	images_fmri/antelope/antelope_06n.jpg	unseen	150	13	6	None	27.0	373.0	6.0	unseen-within	1	4	29.82	2.98	False	True	29.8169379234314	32.801872968673706	[['y', 31.98334789276123]]	-2.0	unseen	False	True	2.16334789276123	2.9849350452423096	1.0	6.0	1629913909.6387	False		False			
03	ses-016	8	images_fmri/gauze/gauze_06s.jpg	seen	3210	268	6	None	665.0	9540.0	6.0	seen-between-within	3	4	34.29	2.98	True	False	34.287631034851074	37.27222299575806	[['x', 35.210530042648315]]	2.0	seen	False	True	0.9205300426483164	2.9845919609069824	1.0	7.0	1629913914.1094	False		False	0.0	1062.7084000110626	170.0
03	ses-016	9	images_fmri/parsley/parsley_06s.jpg	seen	5370	448	6	None	1123.0	15997.0	6.0	seen-within-between	3	4	38.76	2.98	True	False	38.75427007675171	41.735328912734985	[['b', 40.38249492645264]]	-1.0	unseen	True	False	1.6224949264526387	2.9810588359832764	1.0	8.0	1629913918.5761	False		False	7.0	0.0	191.0
03	ses-016	10	images_fmri/tadpole/tadpole_06s.jpg	seen	7518	627	6	None	1615.0	22806.0	6.0	seen-between	2	4	43.23	2.98	True	True	43.23626494407654	46.20045685768128	[['a', 44.944242000579834]]	-2.0	unseen	True	True	1.714242000579837	2.9641919136047363	1.0	9.0	1629913923.0581	False		False	7.0	0.0	240.0
03	ses-016	11	images_fmri/popcorn/popcorn_06s.jpg	unseen	5826	486	6	None	1224.0	17416.0	6.0	unseen-within	1	4	47.7	2.98	True	True	47.700907945632935	50.6663019657135	[['a', 49.51852989196777]]	-2.0	unseen	False	True	1.8185298919677704	2.9653940200805664	1.0	10.0	1629913927.5227	False		False			
03	ses-016	12	images_fmri/lion/lion_06s.jpg	seen	4434	370	6	None	934.0	13337.0	6.0	seen-between-within	3	4	52.17	2.98	False	False	52.170060873031616	55.15483808517456	[['x', 53.017317056655884]]	2.0	seen	False	True	0.8473170566558821	2.9847772121429443	1.0	11.0	1629913931.9918	False		False	0.0	40.233400106430054	9.0
03	ses-016	13	images_fmri/popcorn/popcorn_06s.jpg	seen	5826	486	6	None	1224.0	17416.0	6.0	seen-within	2	4	56.64	2.98	False	True	56.63923788070679	59.61947894096375	[['b', 57.57115387916565]]	2.0	seen	False	True	0.9311538791656488	2.980241060256958	1.0	12.0	1629913936.4610	False		False	0.0	8.938299894332886	2.0
03	ses-016	14	images_fmri/gondola/gondola_06s.jpg	unseen	3330	278	6	None	692.0	9900.0	6.0	unseen-within	1	4	61.11	2.98	True	True	61.10085988044739	64.08300685882568	[['a', 62.30011200904846]]	-2.0	unseen	False	True	1.1901120090484625	2.982146978378296	1.0	13.0	1629913940.9226	False		False			
03	ses-016	15	images_fmri/pizza/pizza_06s.jpg	seen	5670	473	6	None	1193.0	16965.0	6.0	seen-within	2	4	65.58	2.98	False	False	65.58572506904602	68.55379390716553	[['x', 66.58144402503967]]	2.0	seen	False	True	1.0014440250396746	2.968068838119507	1.0	14.0	1629913945.4075	False		False	0.0	796.016900062561	133.0
03	ses-016	16	images_fmri/tiger/tiger_06s.jpg	seen	7722	644	6	None	1660.0	23432.0	6.0	seen-between-within	3	4	70.05	2.98	True	False	70.05312204360962	73.03665399551392	[['x', 70.96334505081177]]	2.0	seen	False	True	0.9133450508117704	2.983531951904297	1.0	15.0	1629913949.8749	False		False	0.0	62.580000162124634	14.0
03	ses-016	17	images_fmri/camcorder/camcorder_06s.jpg	unseen	1266	106	6	None	245.0	3632.0	6.0	unseen-within	1	4	74.52	2.98	False	True	74.5208990573883	77.50033497810364	[['a', 76.49549102783203], ['x', 77.50082087516785]]	1.0	seen	True	False	1.9754910278320352	2.979435920715332	1.0	16.0	1629913954.3427	False		False			
03	ses-016	18	images_fmri/panda/panda_06s.jpg	unseen	5298	442	6	None	1106.0	15739.0	6.0	unseen-between	1	4	78.99	2.98	True	True	78.98398995399475	81.96756291389465	[['a', 80.50419092178345]]	-2.0	unseen	False	True	1.5141909217834524	2.9835729598999023	1.0	17.0	1629913958.8058	False		False			
03	ses-016	19	images_fmri/blanket/blanket_06s.jpg	unseen	702	59	6	None	137.0	2093.0	6.0	unseen-within	1	4	83.46	2.98	False	False	83.45292401313782	86.43734288215637	[['y', 84.47089099884033]]	-2.0	unseen	False	True	1.0108909988403385	2.9844188690185547	1.0	18.0	1629913963.2747	False		False			
03	ses-016	20	images_fmri/bulldozer/bulldozer_06s.jpg	seen	1098	92	6	None	216.0	3239.0	6.0	seen-between	2	4	87.92999999999998	2.98	True	False	87.9357340335846	90.90496587753296	[['a', 89.03391408920288]]	-2.0	unseen	True	True	1.1039140892029025	2.9692318439483643	1.0	19.0	1629913967.7575	False		False	7.0	0.0	528.0
03	ses-016	21	images_fmri/game/game_06s.jpg	unseen	3150	263	6	None	655.0	9412.0	6.0	unseen-within	1	4	92.4	2.98	False	False	92.4042670726776	95.38348293304443	[['y', 94.04498100280762]]	-2.0	unseen	False	True	1.6449810028076115	2.9792158603668213	1.0	20.0	1629913972.2261	False		False			
03	ses-016	22	images_fmri/dishwasher/dishwasher_06s.jpg	seen	2442	204	6	None	492.0	7118.0	6.0	seen-within-between	3	4	96.87	2.98	False	False	96.87078499794006	99.85031795501708	[['a', 99.11088299751282]]	1.0	seen	False	False	2.240882997512813	2.9795329570770264	1.0	21.0	1629913976.6926	False		False	7.0	0.0	387.0
03	ses-016	23	images_fmri/razor/razor_06s.jpg	unseen	6174	515	6	None	1291.0	18375.0	6.0	unseen-within	1	4	101.34	2.98	True	True	101.33700108528136	104.31601405143738	[['a', 103.73579788208008]]	-2.0	unseen	False	True	2.3957978820800747	2.979012966156006	1.0	22.0	1629913981.1588	False		False			
03	ses-016	24	images_fmri/match/match_06s.jpg	unseen	4698	392	6	None	984.0	14025.0	6.0	unseen-between	1	4	105.81	2.98	False	True	105.80457592010498	108.78364491462708	[['y', 106.99904298782349]]	-2.0	unseen	False	True	1.189042987823484	2.9790689945220947	1.0	23.0	1629913985.6264	False		False			
03	ses-016	25	images_fmri/cat/cat_06s.jpg	seen	1482	124	6	None	285.0	4167.0	6.0	seen-within-between	3	4	110.28	2.98	True	True	110.28528690338136	113.24921798706056	[['y', 112.16040086746216], ['x', 112.99667000770569], ['y', 113.70064187049866]]	1.0	seen	False	False	1.880400867462157	2.963931083679199	1.0	24.0	1629913990.1071	False		False	7.0	0.0	397.0
03	ses-016	26	images_fmri/tractor/tractor_06s.jpg	seen	7914	660	6	None	1696.0	23928.0	6.0	seen-between-within	3	4	114.75	2.98	False	True	114.74892902374268	117.7373878955841	[['b', 115.6698899269104]]	2.0	seen	False	True	0.9198899269104004	2.9884588718414307	1.0	25.0	1629913994.5707	False		False	0.0	241.69379997253418	33.0
03	ses-016	27	images_fmri/nacho/nacho_06n.jpg	seen	4998	417	6	None	1046.0	14897.0	6.0	seen-between	2	4	119.22	2.98	True	True	119.21971201896667	122.19873690605164	[['a', 121.43908190727234]]	-2.0	unseen	True	True	2.21908190727234	2.979024887084961	1.0	26.0	1629913999.0415	False		False	7.0	0.0	455.0
03	ses-016	28	images_fmri/coffee_pot/coffee_pot_06s.jpg	seen	1890	158	6	None	381.0	5489.0	6.0	seen-between-within	3	4	123.69	2.98	False	True	123.68628406524658	126.66973900794984	[['b', 124.67690587043762]]	2.0	seen	False	True	0.9869058704376245	2.983454942703247	1.0	27.0	1629914003.5081	False		False	0.0	1147.6405000686646	189.0
03	ses-016	29	images_fmri/fire/fire_06s.jpg	seen	2934	245	6	None	591.0	8536.0	6.0	seen-between-within	3	4	128.16	2.98	False	True	128.14995193481445	131.13689994812012	[['b', 129.03521490097046]]	2.0	seen	False	True	0.8752149009704624	2.986948013305664	1.0	28.0	1629914007.9717	False		False	0.0	259.55710005760193	37.0
03	ses-016	30	images_fmri/squeegee/squeegee_06s.jpg	seen	7122	594	6	None	1528.0	21599.0	6.0	seen-between	2	4	132.63	2.98	True	True	132.63405203819275	135.59758400917053	[['a', 134.15797305107117]]	-2.0	unseen	True	True	1.5279730510711715	2.963531970977783	1.0	29.0	1629914012.4558	False		False	7.0	0.0	303.0
03	ses-016	31	images_fmri/mousse/mousse_06s.jpg	seen	4962	414	6	None	1031.0	14702.0	6.0	seen-between	2	4	137.1	2.98	True	True	137.0991129875183	140.08275890350342	[['y', 138.90103197097778]]	1.0	seen	False	False	1.8010319709777889	2.9836459159851074	1.0	30.0	1629914016.9209	False		False	7.0	0.0	240.0
03	ses-016	32	images_fmri/camcorder/camcorder_06s.jpg	seen	1266	106	6	None	245.0	3632.0	6.0	seen-within	2	4	141.57	2.98	True	False	141.56980800628662	144.54853105545044	[['x', 142.54183793067932]]	2.0	seen	False	True	0.971837930679328	2.9787230491638184	1.0	31.0	1629914021.3916	False		False	0.0	67.04889988899231	15.0
03	ses-016	33	images_fmri/fudge/fudge_06s.jpg	unseen	3138	262	6	None	648.0	9326.0	6.0	unseen-between	1	4	146.04	2.98	False	True	146.03478288650513	149.01454186439514	[['y', 147.56891798973083]]	-2.0	unseen	False	True	1.528917989730843	2.979758977890014	1.0	32.0	1629914025.8566	False		False			
03	ses-016	34	images_fmri/treadmill/treadmill_06s.jpg	seen	7974	665	6	None	1707.0	24077.0	6.0	seen-within-between	3	4	150.51	2.98	False	False	150.49870991706848	153.4812560081482	[['b', 152.59783506393433], ['a', 154.06160688400269]]	-1.0	unseen	True	False	2.0878350639343357	2.982546091079712	1.0	33.0	1629914030.3205	False		False	7.0	0.0	236.0
03	ses-016	35	images_fmri/lollipop/lollipop_06n.jpg	unseen	4518	377	6	None	946.0	13497.0	6.0	unseen-between	1	4	154.98	2.98	True	False	154.9822108745575	157.94818592071533	[['a', 156.26737308502197]]	-2.0	unseen	False	True	1.2873730850219829	2.965975046157837	1.0	34.0	1629914034.8040	False		False			
03	ses-016	36	images_fmri/bassinet/bassinet_06s.jpg	seen	438	37	6	None	86.0	1272.0	6.0	seen-within-between	3	4	159.45	2.98	True	True	159.45016503334045	162.432550907135	[['a', 161.7840120792389]]	-2.0	unseen	True	True	2.334012079238903	2.982385873794556	1.0	35.0	1629914039.2720	False		False	7.0	0.0	296.0
03	ses-016	37	images_fmri/whisk/whisk_06s.jpg	seen	8466	706	6	None	1812.0	25520.0	6.0	seen-within-between	3	4	163.92	2.98	False	False	163.91434597969055	166.8978888988495	[['b', 165.8086919784546]]	-1.0	unseen	True	False	1.8886919784546023	2.9835429191589355	1.0	36.0	1629914043.7361	False		False	7.0	0.0	462.0
03	ses-016	38	images_fmri/shirt/shirt_06s.jpg	seen	6678	557	6	None	1423.0	20185.0	6.0	seen-within-between	3	4	168.39	2.98	False	False	168.3851010799408	171.36458587646484	[['a', 170.14563703536987]]	1.0	seen	False	False	1.7556370353698867	2.979484796524048	1.0	37.0	1629914048.2069	False		False	7.0	0.0	251.0
03	ses-016	39	images_fmri/canoe/canoe_06s.jpg	seen	1386	116	6	None	263.0	3866.0	6.0	seen-between	2	4	172.86	2.98	True	False	172.8669240474701	175.83100700378418	[['b', 175.015074968338]]	-1.0	unseen	True	False	2.155074968337999	2.964082956314087	1.0	38.0	1629914052.6887	False		False	7.0	0.0	512.0
03	ses-016	40	images_fmri/tadpole/tadpole_06s.jpg	seen	7518	627	6	None	1615.0	22806.0	6.0	seen-between-within	3	4	177.32999999999996	2.98	False	False	177.33285903930664	180.2976849079132	[['x', 178.3734929561615]]	2.0	seen	False	True	1.0434929561615434	2.9648258686065674	1.0	39.0	1629914057.1546	False		False	0.0	134.09649991989136	30.0
03	ses-016	41	images_fmri/snake/snake_06s.jpg	seen	6894	575	6	None	1478.0	20941.0	6.0	seen-within	2	4	181.8	2.98	False	True	181.80080699920651	184.78080201148987	[['b', 183.46183490753174]]	2.0	seen	False	True	1.661834907531727	2.979995012283325	1.0	40.0	1629914061.6226	False		False	0.0	804.9506001472473	135.0
03	ses-016	42	images_fmri/spoon/spoon_06s.jpg	seen	7086	591	6	None	1520.0	21490.0	6.0	seen-within	2	4	186.27	2.98	True	False	186.2640058994293	189.2473690509796	[['x', 188.72767996788025]]	2.0	seen	False	True	2.457679967880239	2.983363151550293	1.0	41.0	1629914066.0858	False		False	0.0	1241.5	210.0
03	ses-016	43	images_fmri/gun/gun_06s.jpg	seen	3546	296	6	None	728.0	10441.0	6.0	seen-between-within	3	4	190.74	2.98	True	True	190.730309009552	193.7192590236664	[['b', 191.64993405342102]]	2.0	seen	False	True	0.9099340534210114	2.98895001411438	1.0	42.0	1629914070.5521	False		False	0.0	340.02239990234375	55.0
03	ses-016	44	images_fmri/helicopter/helicopter_06s.jpg	seen	3738	312	6	None	776.0	11104.0	6.0	seen-within-between	3	4	195.21	2.98	True	False	195.21650886535645	198.1848840713501	[['y', 198.1883680820465], ['b', 198.6360719203949]]	1.0	seen	False	False	2.978368082046501	2.9683752059936523	1.0	43.0	1629914075.0383	False		False	7.0	0.0	482.0
03	ses-016	45	images_fmri/sink/sink_06s.jpg	unseen	6798	567	6	None	1448.0	20534.0	6.0	unseen-between	1	4	199.68	2.98	True	True	199.68026208877563	202.6653048992157	[['a', 201.06273102760315]]	-2.0	unseen	False	True	1.3827310276031426	2.9850428104400635	1.0	44.0	1629914079.5021	False		False			
03	ses-016	46	images_fmri/go-kart/go-kart_06s.jpg	seen	3282	274	6	None	683.0	9782.0	6.0	seen-within	2	4	204.15	2.98	True	True	204.150151014328	207.1304910182953	[['b', 204.98542308807373]]	2.0	seen	False	True	0.8354230880737248	2.980340003967285	1.0	45.0	1629914083.9719	False		False	0.0	688.7355999946594	109.0
03	ses-016	47	images_fmri/puck/puck_06s.jpg	seen	5982	499	6	None	1246.0	17721.0	6.0	seen-within	2	4	208.62	2.98	False	True	208.6179859638214	211.60040807724	[['b', 209.48018288612366]]	2.0	seen	False	True	0.8601828861236527	2.982422113418579	1.0	46.0	1629914088.4398	False		False	0.0	317.679899930954	50.0
03	ses-016	48	images_fmri/marshmallow/marshmallow_06s.jpg	unseen	4650	388	6	None	978.0	13939.0	6.0	unseen-within	1	4	213.09	2.98	False	True	213.0836000442505	216.06336998939517	[['y', 214.91123604774475]]	-2.0	unseen	False	True	1.821236047744748	2.9797699451446533	1.0	47.0	1629914092.9054	False		False			
03	ses-016	49	images_fmri/dragonfly/dragonfly_06s.jpg	seen	2562	214	6	None	515.0	7473.0	6.0	seen-between	2	4	217.56	2.98	False	True	217.5659248828888	220.52958607673645	[['a', 219.44858503341675]]	1.0	seen	False	False	1.8885850334167456	2.963661193847656	1.0	48.0	1629914097.3877	False		False	7.0	0.0	356.0
03	ses-016	50	images_fmri/razor/razor_06s.jpg	seen	6174	515	6	None	1291.0	18375.0	6.0	seen-within	2	4	222.03	2.98	True	True	222.03488898277283	225.0145070552826	[['b', 223.38853287696838]]	2.0	seen	False	True	1.3585328769683829	2.9796180725097656	1.0	49.0	1629914101.8567	False		False	0.0	120.69790005683899	27.0
03	ses-016	51	images_fmri/necklace/necklace_06s.jpg	unseen	5034	420	6	None	1055.0	15019.0	6.0	unseen-between	1	4	226.5	2.98	True	False	226.5006730556488	229.48034000396729	[['y', 227.99570107460022]]	1.0	seen	True	False	1.4957010746002195	2.979666948318481	1.0	50.0	1629914106.3225	False		False			
03	ses-016	52	images_fmri/bobsled/bobsled_06s.jpg	unseen	822	69	6	None	156.0	2385.0	6.0	unseen-between	1	4	230.97	2.98	True	False	230.9647240638733	233.9468259811401	[['a', 232.9610710144043]]	-2.0	unseen	False	True	1.991071014404298	2.9821019172668457	1.0	51.0	1629914110.7865	False		False			
03	ses-016	53	images_fmri/kite/kite_06s.jpg	seen	4146	346	6	None	875.0	12529.0	6.0	seen-within	2	4	235.44	2.98	False	False	235.43346691131592	238.41173100471497	[['x', 236.58612394332886]]	2.0	seen	False	True	1.1461239433288597	2.978264093399048	1.0	52.0	1629914115.2553	False		False	0.0	742.3684000968933	121.0
03	ses-016	54	images_fmri/rabbit/rabbit_06s.jpg	unseen	6054	505	6	None	1266.0	18042.0	6.0	unseen-between	1	4	239.91	2.98	False	True	239.91559290885925	242.8789100646973	[['a', 241.80229902267456]]	1.0	seen	True	False	1.892299022674564	2.9633171558380127	1.0	53.0	1629914119.7374	False		False			
03	ses-016	55	images_fmri/spareribs/spareribs_06s.jpg	unseen	7026	586	6	None	1506.0	21302.0	6.0	unseen-within	1	4	244.38	2.98	False	False	244.37923192977905	247.3625729084015	[['y', 246.6795129776001], ['b', 247.862557888031]]	-2.0	unseen	False	True	2.299512977600102	2.9833409786224365	1.0	54.0	1629914124.2010	False		False			
03	ses-016	56	images_fmri/game/game_06s.jpg	seen	3150	263	6	None	655.0	9412.0	6.0	seen-within	2	4	248.85	2.98	True	False	248.84670901298523	251.8293030261993	[['x', 250.0069658756256]]	2.0	seen	False	True	1.156965875625616	2.9825940132141118	1.0	55.0	1629914128.6685	False		False	0.0	156.4423999786377	35.0
03	ses-016	57	images_fmri/weasel/weasel_06s.jpg	unseen	8394	700	6	None	1798.0	25330.0	6.0	unseen-between	1	4	253.32	2.98	True	False	253.31206798553467	256.29648089408875	[['y', 254.87188386917114], ['b', 255.64262294769287]]	1.0	seen	True	False	1.5518838691711494	2.984412908554077	1.0	56.0	1629914133.1339	False		False			
03	ses-016	58	images_fmri/zebra/zebra_06s.jpg	seen	8622	719	6	None	1852.0	26068.0	6.0	seen-within-between	3	4	257.79	2.98	False	False	257.77875208854675	260.7624750137329	[['a', 259.39787006378174]]	1.0	seen	False	False	1.6078700637817178	2.983722925186157	1.0	57.0	1629914137.6005	False		False	7.0	0.0	304.0
03	ses-016	59	images_fmri/lemon/lemon_06s.jpg	seen	4326	361	6	None	915.0	13085.0	6.0	seen-between-within	3	4	262.26	2.98	True	False	262.26479601860046	265.22965908050537	[['x', 263.17994809150696]]	2.0	seen	False	True	0.9199480915069672	2.9648630619049072	1.0	58.0	1629914142.0866	False		False	0.0	245.86420011520386	55.0
03	ses-016	60	images_fmri/caterpillar/caterpillar_06s.jpg	seen	1494	125	6	None	287.0	4191.0	6.0	seen-within-between	3	4	266.73	2.98	True	True	266.7333509922028	269.7134518623352	[['x', 268.9089560508728]]	-1.0	unseen	True	False	2.1789560508727845	2.9801008701324463	1.0	59.0	1629914146.5551	False		False	7.0	0.0	494.0
