subject	session	TrialNumber	image_path	condition	image_nr	category_nr	exemplar_nr	test_image_nr	things_category_nr	things_image_nr	things_exemplar_nr	subcondition	repetition	run	onset	duration	response_mapping_flip_h	response_mapping_flip_v	onset_flip	offset_flip	keypresses	response	response_txt	error	response_confidence	response_time	duration_flip	ran	order	session_trial_time	atypical	atypical_log	exclude_session	delay_days	delay_seconds	trials_since_lastrep
03	ses-016	1	images_fmri/goat/goat_06n.jpg	seen	3306	276	6	None	685.0	9807.0	6.0	seen-within	2	6	3.0	2.98	True	False	3.0034921169281006	5.9663519859313965	[['y', 4.915955066680908], ['x', 5.512773036956787]]	1.0	seen	False	False	1.915955066680908	2.962859869003296	1.0	0.0	1629914607.5585	False		False	0.0	706.8644001483917	116.0
03	ses-016	2	images_fmri/banana/banana_06s.jpg	seen	354	30	6	None	64.0	953.0	6.0	seen-within-between	3	6	7.47	2.98	False	True	7.470821142196655	10.450749158859251	[['x', 9.058357000350952], ['a', 9.825523138046265]]	-1.0	unseen	True	False	1.5883570003509524	2.9799280166625977	1.0	1.0	1629914612.0258	False		False	7.0	0.0	631.0
03	ses-016	3	images_fmri/rhubarb/rhubarb_06s.jpg	seen	6258	522	6	None	1308.0	18623.0	6.0	seen-between-within	3	6	11.94	2.98	False	False	11.9338960647583	14.917278051376345	[['x', 12.865568161010742]]	2.0	seen	False	True	0.9255681610107428	2.983381986618042	1.0	2.0	1629914616.4889	False		False	0.0	145.9756999015808	12.0
03	ses-016	4	images_fmri/hairpin/hairpin_06s.jpg	seen	3570	298	6	None	738.0	10585.0	6.0	seen-between	2	6	16.41	2.98	False	True	16.4034481048584	19.383421182632446	[['x', 18.90588116645813]]	-1.0	unseen	True	False	2.4958811664581297	2.979973077774048	1.0	3.0	1629914620.9585	False		False	7.0	0.0	497.0
03	ses-016	5	images_fmri/hotplate/hotplate_06s.jpg	seen	3858	322	6	None	807.0	11542.0	6.0	seen-within	2	6	20.88	2.98	True	True	20.88626909255981	23.850445985794067	[['b', 21.926897048950195]]	2.0	seen	False	True	1.0468970489501963	2.964176893234253	1.0	4.0	1629914625.4413	False		False	0.0	114.69789981842041	5.0
03	ses-016	6	images_fmri/plate/plate_06s.jpg	seen	5694	475	6	None	1198.0	17030.0	6.0	seen-between	2	6	25.35	2.98	False	False	25.3532030582428	28.33762121200561	[['b', 27.831016063690186]]	-1.0	unseen	True	False	2.481016063690184	2.9844181537628174	1.0	5.0	1629914629.9082	False		False	7.0	0.0	449.0
03	ses-016	7	images_fmri/smoke_alarm/smoke_alarm_06s.jpg	seen	6870	573	6	None	1474.0	20882.0	6.0	seen-between	2	6	29.82	2.98	False	True	29.816586017608643	32.8000431060791	[['x', 31.886332035064697]]	-1.0	unseen	True	False	2.066332035064697	2.983457088470459	1.0	6.0	1629914634.3716	False		False	7.0	0.0	388.0
03	ses-016	8	images_fmri/padlock/padlock_06s.jpg	seen	5238	437	6	None	1096.0	15606.0	6.0	seen-between-within	3	6	34.29	2.98	True	True	34.2864031791687	37.27108311653137	[['b', 35.15139603614807]]	2.0	seen	False	True	0.8613960361480721	2.984679937362671	1.0	7.0	1629914638.8414	False		False	0.0	204.0971999168396	25.0
03	ses-016	9	images_fmri/roll/roll_06s.jpg	seen	6354	530	6	None	1324.0	18839.0	6.0	seen-between-within	3	6	38.76	2.98	False	True	38.75335216522217	41.73322820663452	[['a', 40.266911029815674], ['b', 40.82440519332886]]	1.0	seen	False	False	1.5069110298156758	2.979876041412353	1.0	8.0	1629914643.3084	False		False	0.0	1738.2590999603271	279.0
03	ses-016	10	images_fmri/wine/wine_06s.jpg	seen	8502	709	6	None	1824.0	25679.0	6.0	seen-between	2	6	43.23	2.98	True	False	43.234658002853394	46.19975209236145	[['y', 45.41394805908203]]	1.0	seen	False	False	2.1839480590820344	2.9650940895080566	1.0	9.0	1629914647.7897	False		False	7.0	0.0	516.0
03	ses-016	11	images_fmri/tree_trunk/tree_trunk_06s.jpg	unseen	7998	667	6	None	1710.0	24119.0	6.0	unseen-between	1	6	47.7	2.98	True	False	47.704063177108765	50.68378114700317	[['b', 49.760457038879395]]	-1.0	unseen	False	False	2.060457038879392	2.979717969894409	1.0	10.0	1629914652.2591	False		False			
03	ses-016	12	images_fmri/praying_mantis/praying_mantis_06s.jpg	unseen	5934	495	6	None	1239.0	17620.0	6.0	unseen-between	1	6	52.17	2.98	False	False	52.16623401641846	55.14978003501892	[['y', 54.333744049072266]]	-2.0	unseen	False	True	2.163744049072264	2.983546018600464	1.0	11.0	1629914656.7212	False		False			
03	ses-016	13	images_fmri/drum/drum_06s.jpg	unseen	2634	220	6	None	523.0	7593.0	6.0	unseen-within	1	6	56.64	2.98	False	True	56.63279104232788	59.61700201034546	[['x', 58.50882601737976]]	-1.0	unseen	False	False	1.86882601737976	2.984210968017578	1.0	12.0	1629914661.1878	False		False			
03	ses-016	14	images_fmri/book/book_06s.jpg	seen	846	71	6	None	166.0	2531.0	6.0	seen-within-between	3	6	61.11	2.98	True	False	61.09935116767883	64.08272004127502	[['b', 63.05262517929077]]	-1.0	unseen	True	False	1.942625179290772	2.9833688735961914	1.0	13.0	1629914665.6544	False		False	7.0	0.0	401.0
03	ses-016	15	images_fmri/bumper/bumper_06s.jpg	seen	1122	94	6	None	220.0	3298.0	6.0	seen-between	2	6	65.58	2.98	False	True	65.58522319793701	68.55330300331116	[['a', 68.77964901924133]]	1.0	seen	False	False	3.1996490192413347	2.968079805374145	1.0	14.0	1629914670.1402	False		False	7.0	0.0	391.0
03	ses-016	16	images_fmri/plate/plate_06s.jpg	seen	5694	475	6	None	1198.0	17030.0	6.0	seen-between-within	3	6	70.05	2.98	False	False	70.04978919029236	73.0351049900055	[['x', 70.97105312347412]]	2.0	seen	False	True	0.921053123474124	2.9853157997131348	1.0	15.0	1629914674.6048	False		False	0.0	44.69659996032715	10.0
03	ses-016	17	images_fmri/wrench/wrench_06s.jpg	seen	8598	717	6	None	1842.0	25933.0	6.0	seen-within	2	6	74.52	2.98	True	True	74.5197331905365	77.5001380443573	[['x', 76.52625322341919]]	-1.0	unseen	True	False	2.006253223419193	2.980404853820801	1.0	16.0	1629914679.0747	False		False	0.0	405.2440001964569	70.0
03	ses-016	18	images_fmri/cow/cow_06n.jpg	unseen	2106	176	6	None	427.0	6155.0	6.0	unseen-between	1	6	78.99	2.98	False	True	78.98655605316162	81.96555805206299	[['x', 81.06583404541016]]	-1.0	unseen	False	False	2.0758340454101614	2.979001998901367	1.0	17.0	1629914683.5416	False		False			
03	ses-016	19	images_fmri/tab/tab_06s.jpg	seen	7470	623	6	None	1608.0	22716.0	6.0	seen-between	2	6	83.46	2.98	False	True	83.45193910598755	86.43092799186707	[['x', 85.02766299247742]]	-1.0	unseen	True	False	1.5676629924774232	2.9789888858795166	1.0	18.0	1629914688.0070	False		False	7.0	0.0	451.0
03	ses-016	20	images_fmri/eggplant/eggplant_06s.jpg	unseen	2742	229	6	None	551.0	7996.0	6.0	unseen-between	1	6	87.92999999999998	2.98	False	False	87.93333005905151	90.89857602119446	[['b', 89.96668100357056]]	-1.0	unseen	False	False	2.0366810035705782	2.9652459621429443	1.0	19.0	1629914692.4883	False		False			
03	ses-016	21	images_fmri/grenade/grenade_06s.jpg	unseen	3462	289	6	None	714.0	10243.0	6.0	unseen-between	1	6	92.4	2.98	True	True	92.4032130241394	95.38248801231384	[['x', 93.77487111091614]]	-1.0	unseen	False	False	1.374871110916132	2.9792749881744385	1.0	20.0	1629914696.9582	False		False			
03	ses-016	22	images_fmri/filing_cabinet/filing_cabinet_06s.jpg	seen	2922	244	6	None	586.0	8472.0	6.0	seen-within-between	3	6	96.87	2.98	False	True	96.87031316757202	99.8492112159729	[['x', 98.61861515045166]]	-1.0	unseen	True	False	1.7486151504516556	2.978898048400879	1.0	21.0	1629914701.4253	False		False	7.0	0.0	435.0
03	ses-016	23	images_fmri/fig/fig_06n.jpg	unseen	2910	243	6	None	582.0	8424.0	6.0	unseen-within	1	6	101.34	2.98	False	True	101.33247303962708	104.31526207923888	[['x', 103.34267115592957]]	-1.0	unseen	False	False	2.002671155929562	2.9827890396118164	1.0	22.0	1629914705.8875	False		False			
03	ses-016	24	images_fmri/dish/dish_06s.jpg	seen	2418	202	6	None	490.0	7085.0	6.0	seen-within-between	3	6	105.81	2.98	False	False	105.8025290966034	108.78066611289978	[['b', 108.3657500743866], ['a', 108.80904912948608]]	-1.0	unseen	True	False	2.5557500743865944	2.9781370162963867	1.0	23.0	1629914710.3575	False		False	7.0	0.0	479.0
03	ses-016	25	images_fmri/shaving_cream/shaving_cream_06s.jpg	seen	6618	552	6	None	1411.0	20029.0	6.0	seen-within-between	3	6	110.28	2.98	False	False	110.28127408027648	113.24710416793825	[['a', 112.28176212310791]]	1.0	seen	False	False	2.001762123107909	2.965830087661743	1.0	24.0	1629914714.8363	False		False	7.0	0.0	589.0
03	ses-016	26	images_fmri/gondola/gondola_06s.jpg	seen	3330	278	6	None	692.0	9900.0	6.0	seen-within	2	6	114.75	2.98	True	True	114.74880599975586	117.73331999778748	[['b', 115.77339816093445]]	2.0	seen	False	True	1.0233981609344482	2.984513998031616	1.0	25.0	1629914719.3038	False		False	0.0	778.3812000751495	132.0
03	ses-016	27	images_fmri/papaya/papaya_06n.jpg	seen	5322	444	6	None	1112.0	15822.0	6.0	seen-between-within	3	6	119.22	2.98	True	False	119.21866106987	122.20212912559508	[['x', 120.32732105255127]]	2.0	seen	False	True	1.107321052551271	2.9834680557250977	1.0	26.0	1629914723.7737	False		False	0.0	1395.586699962616	225.0
03	ses-016	28	images_fmri/monkey/monkey_06s.jpg	unseen	4854	405	6	None	1018.0	14502.0	6.0	unseen-between	1	6	123.69	2.98	True	False	123.6852970123291	126.664528131485	[['b', 125.92039799690247]]	-1.0	unseen	False	False	2.230397996902468	2.979231119155884	1.0	27.0	1629914728.2403	False		False			
03	ses-016	29	images_fmri/helmet/helmet_06s.jpg	unseen	3750	313	6	None	777.0	11129.0	6.0	unseen-within	1	6	128.16	2.98	True	False	128.16629219055176	131.13123607635498	[['a', 129.84752917289734]]	-2.0	unseen	False	True	1.6875291728973425	2.9649438858032227	1.0	28.0	1629914732.7213	False		False			
03	ses-016	30	images_fmri/fig/fig_06n.jpg	seen	2910	243	6	None	582.0	8424.0	6.0	seen-within	2	6	132.63	2.98	True	False	132.6339430809021	135.6029191017151	[['x', 133.65410709381104]]	2.0	seen	False	True	1.0241070938110397	2.9689760208129883	1.0	29.0	1629914737.1890	False		False	0.0	31.301499843597412	7.0
03	ses-016	31	images_fmri/wolf/wolf_06n.jpg	seen	8538	712	6	None	1832.0	25799.0	6.0	seen-within-between	3	6	137.1	2.98	True	True	137.09644317626953	140.08093118667605	[['y', 139.15604400634766]]	1.0	seen	False	False	2.056044006347662	2.984488010406494	1.0	30.0	1629914741.6515	False		False	7.0	0.0	632.0
03	ses-016	32	images_fmri/dollhouse/dollhouse_06s.jpg	unseen	2478	207	6	None	501.0	7239.0	6.0	unseen-within	1	6	141.57	2.98	True	False	141.5692172050476	144.547865152359	[['b', 143.94944310188293]]	-1.0	unseen	False	False	2.3794431018829414	2.9786479473114014	1.0	31.0	1629914746.1242	False		False			
03	ses-016	33	images_fmri/coat/coat_06s.jpg	unseen	1842	154	6	None	370.0	5341.0	6.0	unseen-within	1	6	146.04	2.98	True	True	146.03058218955994	149.01397609710693	[['x', 148.2922010421753]]	-1.0	unseen	False	False	2.252201042175301	2.983393907546997	1.0	32.0	1629914750.5856	False		False			
03	ses-016	34	images_fmri/zucchini/zucchini_06n.jpg	seen	8634	720	6	None	1854.0	26100.0	6.0	seen-within	2	6	150.51	2.98	False	False	150.51628518104553	153.48055720329285	[['x', 151.50946021080017]]	2.0	seen	False	True	0.99946021080018	2.9642720222473145	1.0	33.0	1629914755.0713	False		False	0.0	378.42400002479553	64.0
03	ses-016	35	images_fmri/ant/ant_06s.jpg	seen	126	11	6	None	25.0	349.0	6.0	seen-between-within	3	6	154.98	2.98	True	True	154.98037004470825	157.96657299995422	[['b', 156.006667137146]]	2.0	seen	False	True	1.0266671371460063	2.986202955245972	1.0	34.0	1629914759.5354	False		False	0.0	1207.7990000247955	207.0
03	ses-016	36	images_fmri/helmet/helmet_06s.jpg	seen	3750	313	6	None	777.0	11129.0	6.0	seen-within	2	6	159.45	2.98	True	True	159.4515450000763	162.43095421791077	[['b', 160.83489418029785]]	2.0	seen	False	True	1.384894180297863	2.9794092178344727	1.0	35.0	1629914764.0066	False		False	0.0	31.2853000164032	7.0
03	ses-016	37	images_fmri/wine/wine_06s.jpg	seen	8502	709	6	None	1824.0	25679.0	6.0	seen-between-within	3	6	163.92	2.98	True	False	163.9165380001068	166.89571118354797	[['x', 165.19771099090576]]	2.0	seen	False	True	1.2777109909057742	2.979173183441162	1.0	36.0	1629914768.4716	False		False	0.0	120.68190002441406	27.0
03	ses-016	38	images_fmri/walnut/walnut_06n.jpg	seen	8298	692	6	None	1779.0	25082.0	6.0	seen-within	2	6	168.39	2.98	False	False	168.3840901851654	171.36353611946106	[['y', 170.74665904045105]]	-2.0	unseen	True	True	2.3566590404510634	2.9794459342956543	1.0	37.0	1629914772.9391	False		False	0.0	997.6932001113892	160.0
03	ses-016	39	images_fmri/dollhouse/dollhouse_06s.jpg	seen	2478	207	6	None	501.0	7239.0	6.0	seen-within	2	6	172.86	2.98	True	True	172.86606812477112	175.83008909225464	[['b', 173.66063714027405]]	2.0	seen	False	True	0.8006371402740342	2.9640209674835205	1.0	38.0	1629914777.4211	False		False	0.0	31.296899795532227	7.0
03	ses-016	40	images_fmri/projector/projector_06s.jpg	seen	5970	498	6	None	1243.0	17679.0	6.0	seen-between-within	3	6	177.32999999999996	2.98	True	True	177.32982802391052	180.3156931400299	[['b', 178.46384620666504]]	2.0	seen	False	True	1.1338462066650834	2.9858651161193848	1.0	39.0	1629914781.8848	False		False	0.0	1185.4535999298096	202.0
03	ses-016	41	images_fmri/sundial/sundial_06s.jpg	unseen	7362	614	6	None	1584.0	22366.0	6.0	unseen-between	1	6	181.8	2.98	True	True	181.7996211051941	184.7795431613922	[['a', 183.55136013031006]]	-2.0	unseen	False	True	1.7513601303100472	2.97992205619812	1.0	40.0	1629914786.3546	False		False			
03	ses-016	42	images_fmri/cherry/cherry_06n.jpg	unseen	1626	136	6	None	317.0	4609.0	6.0	unseen-between	1	6	186.27	2.98	False	False	186.2660760879517	189.24647402763367	[['a', 188.4842221736908], ['b', 189.41295218467712]]	1.0	seen	True	False	2.2142221736907857	2.980397939682007	1.0	41.0	1629914790.8211	False		False			
03	ses-016	43	images_fmri/canoe/canoe_06s.jpg	seen	1386	116	6	None	263.0	3866.0	6.0	seen-between-within	3	6	190.74	2.98	True	False	190.72928404808044	193.71704721450809	[['x', 191.62847900390625]]	2.0	seen	False	True	0.8884790039062409	2.9877631664276123	1.0	42.0	1629914795.2843	False		False	0.0	742.5956001281738	124.0
03	ses-016	44	images_fmri/coat/coat_06s.jpg	seen	1842	154	6	None	370.0	5341.0	6.0	seen-within	2	6	195.21	2.98	False	True	195.2148880958557	198.1835150718689	[['b', 196.2649290561676]]	2.0	seen	False	True	1.0549290561675946	2.968626976013184	1.0	43.0	1629914799.7699	False		False	0.0	49.18430018424988	11.0
03	ses-016	45	images_fmri/brace/brace_06s.jpg	unseen	942	79	6	None	187.0	2831.0	6.0	unseen-within	1	6	199.68	2.98	False	True	199.67923617362976	202.6633260250092	[['y', 202.01642203330994]]	-2.0	unseen	False	True	2.3364220333099297	2.9840898513793945	1.0	44.0	1629914804.2343	False		False			
03	ses-016	46	images_fmri/oyster/oyster_06s.jpg	unseen	5214	435	6	None	1093.0	15565.0	6.0	unseen-between	1	6	204.15	2.98	True	False	204.14882922172544	207.1293580532074	[['b', 206.26991319656372]]	-1.0	unseen	False	False	2.119913196563715	2.9805288314819336	1.0	45.0	1629914808.7038	False		False			
03	ses-016	47	images_fmri/jam/jam_06s.jpg	seen	3978	332	6	None	840.0	12010.0	6.0	seen-within	2	6	208.62	2.98	True	True	208.61709809303284	211.59634804725647	[['y', 211.0438630580902]]	1.0	seen	False	False	2.4238630580902054	2.979249954223633	1.0	46.0	1629914813.1721	False		False	0.0	499.10640001296997	91.0
03	ses-016	48	images_fmri/hairpin/hairpin_06s.jpg	seen	3570	298	6	None	738.0	10585.0	6.0	seen-between-within	3	6	213.09	2.98	False	False	213.08296012878415	216.0662500858307	[['x', 213.98200511932373]]	2.0	seen	False	True	0.8920051193237271	2.983289957046509	1.0	47.0	1629914817.6380	False		False	0.0	196.67950010299683	44.0
03	ses-016	49	images_fmri/bumper/bumper_06s.jpg	seen	1122	94	6	None	220.0	3298.0	6.0	seen-between-within	3	6	217.56	2.98	True	False	217.5654580593109	220.5321900844574	[['x', 218.44627404212952]]	2.0	seen	False	True	0.8862740421295143	2.9667320251464844	1.0	48.0	1629914822.1205	False		False	0.0	151.98030018806458	34.0
03	ses-016	50	images_fmri/easel/easel_06s.jpg	unseen	2694	225	6	None	543.0	7883.0	6.0	unseen-between	1	6	222.03	2.98	False	True	222.03342008590695	225.0130660533905	[['y', 223.52826714515686]]	-2.0	unseen	False	True	1.4982671451568592	2.9796459674835205	1.0	49.0	1629914826.5884	False		False			
03	ses-016	51	images_fmri/prism/prism_06s.jpg	seen	5958	497	6	None	1242.0	17667.0	6.0	seen-between-within	3	6	226.5	2.98	False	True	226.4995880126953	229.47829604148865	[['b', 227.4210660457611]]	2.0	seen	False	True	0.9210660457611084	2.978708028793335	1.0	50.0	1629914831.0546	False		False	0.0	508.0581998825073	93.0
03	ses-016	52	images_fmri/yo-yo/yo-yo_06s.jpg	unseen	8610	718	6	None	1848.0	26011.0	6.0	unseen-between	1	6	230.97	2.98	True	False	230.9619951248169	233.94526314735413	[['a', 232.47371912002563]]	-2.0	unseen	False	True	1.503719120025636	2.9832680225372314	1.0	51.0	1629914835.5170	False		False			
03	ses-016	53	images_fmri/tab/tab_06s.jpg	seen	7470	623	6	None	1608.0	22716.0	6.0	seen-between-within	3	6	235.44	2.98	False	True	235.42817401885983	238.4106221199036	[['b', 236.56663298606873]]	2.0	seen	False	True	1.126632986068728	2.982448101043701	1.0	52.0	1629914839.9832	False		False	0.0	151.97620010375977	34.0
03	ses-016	54	images_fmri/bean/bean_06s.jpg	unseen	486	41	6	None	103.0	1549.0	6.0	unseen-between	1	6	239.91	2.98	True	False	239.91224598884585	242.877601146698	[['b', 242.03564620018005]]	-1.0	unseen	False	False	2.125646200180057	2.965355157852173	1.0	53.0	1629914844.4673	False		False			
03	ses-016	55	images_fmri/typewriter/typewriter_06s.jpg	unseen	8094	675	6	None	1742.0	24552.0	6.0	unseen-between	1	6	244.38	2.98	True	False	244.3802890777588	247.36138916015625	[['y', 247.00591611862183]]	1.0	seen	True	False	2.6259161186218307	2.981100082397461	1.0	54.0	1629914848.9353	False		False			
03	ses-016	56	images_fmri/sleeping_bag/sleeping_bag_06s.jpg	unseen	6834	570	6	None	1463.0	20738.0	6.0	unseen-between	1	6	248.85	2.98	True	True	248.84839010238647	251.82785320281985	[['x', 251.45039010047913]]	-1.0	unseen	False	False	2.600390100479132	2.9794631004333496	1.0	55.0	1629914853.4034	False		False			
03	ses-016	57	images_fmri/bench/bench_06s.jpg	seen	594	50	6	None	121.0	1848.0	6.0	seen-within	2	6	253.32	2.98	False	False	253.31191420555115	256.2936351299286	[['x', 255.0713551044464]]	2.0	seen	False	True	1.751355104446418	2.9817209243774414	1.0	56.0	1629914857.8669	False		False	0.0	373.9394998550415	63.0
03	ses-016	58	images_fmri/drum/drum_06s.jpg	seen	2634	220	6	None	523.0	7593.0	6.0	seen-within	2	6	257.79	2.98	False	True	257.7986249923706	260.7604579925537	[['x', 259.9399371147156]]	-1.0	unseen	True	False	2.149937114715556	2.961833000183105	1.0	57.0	1629914862.3536	False		False	0.0	201.1658000946045	45.0
03	ses-016	59	images_fmri/brace/brace_06s.jpg	seen	942	79	6	None	187.0	2831.0	6.0	seen-within	2	6	262.26	2.98	False	False	262.26513600349426	265.2308371067047	[['x', 263.188374042511]]	2.0	seen	False	True	0.9283740425109954	2.965701103210449	1.0	58.0	1629914866.8201	False		False	0.0	62.58580017089844	14.0
03	ses-016	60	images_fmri/smoke_alarm/smoke_alarm_06s.jpg	seen	6870	573	6	None	1474.0	20882.0	6.0	seen-between-within	3	6	266.73	2.98	False	False	266.7316629886627	269.7136251926422	[['x', 267.5906960964203]]	2.0	seen	False	True	0.8606960964202699	2.981962203979492	1.0	59.0	1629914871.2867	False		False	0.0	236.91510009765625	53.0
