subject	session	TrialNumber	image_path	condition	image_nr	category_nr	exemplar_nr	test_image_nr	things_category_nr	things_image_nr	things_exemplar_nr	subcondition	repetition	run	onset	duration	response_mapping_flip_h	response_mapping_flip_v	onset_flip	offset_flip	keypresses	response	response_txt	error	response_confidence	response_time	duration_flip	ran	order	session_trial_time	atypical	atypical_log	exclude_session	delay_days	delay_seconds	trials_since_lastrep
01	ses-024	1	images_fmri/duster/duster_06s.jpg	seen	2646	221	6	None	535.0	7769.0	6.0	seen-within	2	3	3.0	2.98	True	False	2.9996407039998303	5.966144815998632	[['x', 4.117024401999515]]	2.0	seen	False	True	1.1170244019995152	2.966504111998802	1.0	0.0	11612.8891	False		False	0.0	249.58820000000014	35.0
01	ses-024	2	images_fmri/platypus/platypus_06s.jpg	seen	5706	476	6	None	1199.0	17043.0	6.0	seen-within	2	3	7.47	2.98	False	False	7.466894503999356	10.44948399399982	[['x', 8.42404431399882]]	2.0	seen	False	True	0.9540443139988204	2.982589490000464	1.0	1.0	11617.3563	False		False	0.0	173.59389999999985	18.0
01	ses-024	3	images_fmri/grape/grape_06s.jpg	seen	3390	283	6	None	703.0	10073.0	6.0	seen-within-between	3	3	11.94	2.98	True	True	11.93308522299958	14.91604363999977	[['x', 13.098240408999118]]	-1.0	unseen	True	False	1.1582404089991185	2.982958417000191	1.0	2.0	11621.8225	False		False	7.0	0.0	324.0
01	ses-024	4	images_fmri/hairbrush/hairbrush_06s.jpg	seen	3558	297	6	None	735.0	10541.0	6.0	seen-between	2	3	16.41	2.98	True	False	16.39976278299946	19.383538465999663	[['b', 17.49796286899982]]	-1.0	unseen	True	False	1.0879628689998206	2.983775683000204	1.0	3.0	11626.2892	False		False	7.0	0.0	401.0
01	ses-024	5	images_fmri/cardigan/cardigan_06s.jpg	seen	1422	119	6	None	274.0	4023.0	6.0	seen-between-within	3	3	20.88	2.98	True	True	20.86716107499888	23.857160427000053	[['b', 21.78686778500014]]	2.0	seen	False	True	0.9068677850001414	2.9899993520011776	1.0	4.0	11630.7566	False		False	0.0	137.82870000000003	10.0
01	ses-024	6	images_fmri/stethoscope/stethoscope_06n.jpg	seen	7230	603	6	None	1551.0	21909.0	6.0	seen-between	2	3	25.35	2.98	True	False	25.3548672629986	28.31763339799909	[['b', 26.877143621999494]]	-1.0	unseen	True	False	1.5271436219994925	2.962766135000493	1.0	5.0	11635.2443	False		False	7.0	0.0	151.0
01	ses-024	7	images_fmri/egg_roll/egg_roll_06s.jpg	seen	2718	227	6	None	548.0	7955.0	6.0	seen-within	2	3	29.82	2.98	True	True	29.822053050998875	32.802737869998964	[['b', 31.016248698999334]]	2.0	seen	False	True	1.1962486989993335	2.980684819000089	1.0	6.0	11639.7115	False		False	0.0	142.3123999999989	11.0
01	ses-024	8	images_fmri/sheep/sheep_06s.jpg	seen	6630	553	6	None	1415.0	20081.0	6.0	seen-between	2	3	34.29	2.98	False	True	34.289361919998555	37.26803360699887	[['y', 35.80681747199924]]	-2.0	unseen	True	True	1.516817471999239	2.9786716870003147	1.0	7.0	11644.1788	False		False	7.0	0.0	401.0
01	ses-024	9	images_fmri/pizza/pizza_06s.jpg	unseen	5670	473	6	None	1193.0	16965.0	6.0	unseen-between	1	3	38.76	2.98	False	True	38.751814600000216	41.73493751899878	[['x', 41.543763966999904]]	-1.0	unseen	False	False	2.7837639669999064	2.9831229189985606	1.0	8.0	11648.6413	False		False			
01	ses-024	10	images_fmri/racket/racket_06s.jpg	seen	6078	507	6	None	1271.0	18108.0	6.0	seen-between	2	3	43.23	2.98	False	False	43.21812408099868	46.2007597339998	[['b', 45.16520099799891]]	-1.0	unseen	True	False	1.935200997998912	2.9826356530011253	1.0	9.0	11653.1076	False		False	7.0	0.0	156.0
01	ses-024	11	images_fmri/fence/fence_06s.jpg	unseen	2862	239	6	None	576.0	8327.0	6.0	unseen-within	1	3	47.7	2.98	False	False	47.70410468599948	50.66759998999987	[['b', 48.903267003999645]]	-1.0	unseen	False	False	1.2032670039996418	2.9634953040003893	1.0	10.0	11657.5936	False		False			
01	ses-024	12	images_fmri/artichoke/artichoke_06s.jpg	seen	210	18	6	None	40.0	558.0	6.0	seen-between	2	3	52.17	2.98	False	False	52.17113366099875	55.156431419	[['b', 53.13598414700027]]	-1.0	unseen	True	False	0.9659841470002704	2.985297758001252	1.0	11.0	11662.0606	False		False	7.0	0.0	370.0
01	ses-024	13	images_fmri/hovercraft/hovercraft_06s.jpg	unseen	3882	324	6	None	809.0	11568.0	6.0	unseen-between	1	3	56.64	2.98	False	True	56.63362004499868	59.61692577499889	[['x', 58.05505999399975]]	-1.0	unseen	False	False	1.4150599939997477	2.983305730000211	1.0	12.0	11666.5231	False		False			
01	ses-024	14	images_fmri/toucan/toucan_06s.jpg	seen	7866	656	6	None	1691.0	23859.0	6.0	seen-within-between	3	3	61.11	2.98	True	False	61.10440819299947	64.08352873999866	[['b', 62.21806304399979]]	-1.0	unseen	True	False	1.1080630439997918	2.979120546999184	1.0	13.0	11670.9939	False		False	7.0	0.0	140.0
01	ses-024	15	images_fmri/mango/mango_06s.jpg	unseen	4602	384	6	None	967.0	13779.0	6.0	unseen-within	1	3	65.58	2.98	True	True	65.58708497800035	68.55010442499952	[['x', 66.70073534199946]]	-1.0	unseen	False	False	1.1207353419994632	2.9630194469991693	1.0	14.0	11675.4765	False		False			
01	ses-024	16	images_fmri/weasel/weasel_06s.jpg	seen	8394	700	6	None	1798.0	25330.0	6.0	seen-between	2	3	70.05	2.98	False	False	70.05675720999898	73.018023360999	[['y', 71.51885735399992]]	-2.0	unseen	True	True	1.4688573539999226	2.961266151000018	1.0	15.0	11679.9462	False		False	7.0	0.0	283.0
01	ses-024	17	images_fmri/scone/scone_06s.jpg	seen	6522	544	6	None	1381.0	19614.0	6.0	seen-within-between	3	3	74.52	2.98	True	True	74.52258058699954	77.5002248210003	[['x', 75.83697398999902]]	-1.0	unseen	True	False	1.3169739899990276	2.9776442340007634	1.0	16.0	11684.4120	False		False	7.0	0.0	159.0
01	ses-024	18	images_fmri/wrench/wrench_06s.jpg	unseen	8598	717	6	None	1842.0	25933.0	6.0	unseen-within	1	3	78.99	2.98	True	True	78.988664642	81.96678374600015	[['x', 80.14968721399964]]	-1.0	unseen	False	False	1.1596872139996464	2.978119104000143	1.0	17.0	11688.8781	False		False			
01	ses-024	19	images_fmri/mask/mask_06s.jpg	seen	4674	390	6	None	981.0	13982.0	6.0	seen-within	2	3	83.46	2.98	False	True	83.45516429300005	86.43359511400013	[['b', 84.57168351399923]]	2.0	seen	False	True	1.111683513999239	2.9784308210000745	1.0	18.0	11693.3446	False		False	0.0	811.1170999999995	138.0
01	ses-024	20	images_fmri/hedge/hedge_06s.jpg	seen	3714	310	6	None	774.0	11076.0	6.0	seen-between	2	3	87.92999999999998	2.98	True	True	87.9365097129994	90.90090734099977	[['x', 89.1150207849987]]	-1.0	unseen	True	False	1.185020784998727	2.96439762800037	1.0	19.0	11697.8260	False		False	7.0	0.0	473.0
01	ses-024	21	images_fmri/applesauce/applesauce_06s.jpg	seen	198	17	6	None	33.0	463.0	6.0	seen-between-within	3	3	92.4	2.98	True	True	92.40301407900006	95.38285014099893	[['x', 93.74788483900011]]	-1.0	unseen	True	False	1.347884839000102	2.979836061998867	1.0	20.0	11702.2925	False		False	0.0	797.7147999999997	135.0
01	ses-024	22	images_fmri/stethoscope/stethoscope_06n.jpg	seen	7230	603	6	None	1551.0	21909.0	6.0	seen-between-within	3	3	96.87	2.98	False	True	96.86726626499876	99.85341408299972	[['b', 98.02652775999923]]	2.0	seen	False	True	1.1565277599992214	2.9861478180009726	1.0	21.0	11706.7567	False		False	0.0	71.51239999999962	16.0
01	ses-024	23	images_fmri/bowl/bowl_06n.jpg	unseen	894	75	6	None	178.0	2707.0	6.0	unseen-between	1	3	101.34	2.98	False	False	101.33671406199936	104.31641562499864	[['b', 102.78400133200012]]	-1.0	unseen	False	False	1.4440013320001128	2.979701562999253	1.0	22.0	11711.2262	False		False			
01	ses-024	24	images_fmri/crate/crate_06s.jpg	seen	2142	179	6	None	434.0	6271.0	6.0	seen-between	2	3	105.81	2.98	False	True	105.80362909399992	108.78266905599958	[['x', 107.3178891259995]]	-1.0	unseen	True	False	1.5078891259994975	2.9790399619996606	1.0	23.0	11715.6931	False		False	7.0	0.0	328.0
01	ses-024	25	images_fmri/artichoke/artichoke_06s.jpg	seen	210	18	6	None	40.0	558.0	6.0	seen-between-within	3	3	110.28	2.98	True	True	110.2860608109986	113.2489065259997	[['b', 111.89343389699934]]	2.0	seen	False	True	1.6134338969993394	2.9628457150010945	1.0	24.0	11720.1755	False		False	0.0	58.11489999999867	13.0
01	ses-024	26	images_fmri/mistletoe/mistletoe_06s.jpg	unseen	4830	403	6	None	1008.0	14366.0	6.0	unseen-within	1	3	114.75	2.98	False	True	114.752588198	117.73614501299926	[['x', 115.85707534099856]]	-1.0	unseen	False	False	1.1070753409985628	2.983556814999247	1.0	25.0	11724.6420	False		False			
01	ses-024	27	images_fmri/brace/brace_06s.jpg	seen	942	79	6	None	187.0	2831.0	6.0	seen-within-between	3	3	119.22	2.98	False	True	119.22154503699858	122.1990945159996	[['x', 120.58401326700005]]	-1.0	unseen	True	False	1.3640132670000469	2.977549479001027	1.0	26.0	11729.1110	False		False	7.0	0.0	470.0
01	ses-024	28	images_fmri/coverall/coverall_06s.jpg	unseen	2094	175	6	None	426.0	6141.0	6.0	unseen-between	1	3	123.69	2.98	False	False	123.686604601	126.6681408200002	[['b', 124.644495610999]]	-1.0	unseen	False	False	0.954495610999004	2.9815362190001906	1.0	27.0	11733.5761	False		False			
01	ses-024	29	images_fmri/mailbox/mailbox_06s.jpg	unseen	4554	380	6	None	961.0	13691.0	6.0	unseen-within	1	3	128.16	2.98	True	False	128.15270882699951	131.13732825599982	[['b', 129.1624876269998]]	-1.0	unseen	False	False	1.0024876269997949	2.984619429000304	1.0	28.0	11738.0422	False		False			
01	ses-024	30	images_fmri/wrench/wrench_06s.jpg	seen	8598	717	6	None	1842.0	25933.0	6.0	seen-within	2	3	132.63	2.98	True	True	132.63550254300026	135.5987693879997	[['b', 133.78658570599873]]	2.0	seen	False	True	1.1565857059987366	2.9632668449994526	1.0	29.0	11742.5250	False		False	0.0	53.64689999999973	12.0
01	ses-024	31	images_fmri/backpack/backpack_06s.jpg	unseen	282	24	6	None	50.0	714.0	6.0	unseen-within	1	3	137.1	2.98	False	False	137.10379583199938	140.08199812299972	[['b', 138.4570828169999]]	-1.0	unseen	False	False	1.357082816999906	2.9782022910003434	1.0	30.0	11746.9933	False		False			
01	ses-024	32	images_fmri/paint/paint_06s.jpg	unseen	5250	438	6	None	1097.0	15620.0	6.0	unseen-within	1	3	141.57	2.98	False	False	141.56979058599973	144.5484258219985	[['b', 143.37965506099863]]	-1.0	unseen	False	False	1.8096550609986368	2.9786352359988086	1.0	31.0	11751.4592	False		False			
01	ses-024	33	images_fmri/bubble/bubble_06n.jpg	unseen	1062	89	6	None	208.0	3134.0	6.0	unseen-between	1	3	146.04	2.98	True	False	146.03245088399854	149.01498417699986	[['b', 147.4007223239987]]	-1.0	unseen	False	False	1.360722323998715	2.9825332930013246	1.0	32.0	11755.9219	False		False			
01	ses-024	34	images_fmri/life_jacket/life_jacket_06s.jpg	seen	4374	365	6	None	925.0	13212.0	6.0	seen-between	2	3	150.51	2.98	False	True	150.50212233099955	153.48132182500012	[['x', 151.84133631300028]]	-1.0	unseen	True	False	1.3313363130002926	2.979199494000568	1.0	33.0	11760.3916	False		False	7.0	0.0	263.0
01	ses-024	35	images_fmri/hedge/hedge_06s.jpg	seen	3714	310	6	None	774.0	11076.0	6.0	seen-between-within	3	3	154.98	2.98	True	False	154.98490845299966	157.9479897959991	[['x', 156.03446731700024]]	2.0	seen	False	True	1.0544673170002454	2.9630813429994305	1.0	34.0	11764.8744	False		False	0.0	67.0484000000015	15.0
01	ses-024	36	images_fmri/camera1/camera1_06s.jpg	unseen	1290	108	6	None	248.0	3671.0	6.0	unseen-between	1	3	159.45	2.98	True	False	159.45116271199913	162.43128164399968	[['b', 160.69474280099894]]	-1.0	unseen	False	False	1.2447428009989494	2.9801189320005506	1.0	35.0	11769.3406	False		False			
01	ses-024	37	images_fmri/filing_cabinet/filing_cabinet_06s.jpg	unseen	2922	244	6	None	586.0	8472.0	6.0	unseen-within	1	3	163.92	2.98	False	False	163.91881513999942	166.89765442599855	[['b', 165.02623976599898]]	-1.0	unseen	False	False	1.1062397659989929	2.978839285999129	1.0	36.0	11773.8083	False		False			
01	ses-024	38	images_fmri/hamster/hamster_06s.jpg	seen	3618	302	6	None	744.0	10660.0	6.0	seen-within-between	3	3	168.39	2.98	False	False	168.38536058299906	171.3648785509995	[['y', 169.94349130299997]]	-2.0	unseen	True	True	1.553491302999987	2.9795179680004367	1.0	37.0	11778.2748	False		False	7.0	0.0	216.0
01	ses-024	39	images_fmri/flag/flag_06n.jpg	unseen	2982	249	6	None	606.0	8758.0	6.0	unseen-within	1	3	172.86	2.98	True	False	172.85211984799935	175.83115631799956	[['b', 174.1471711189988]]	-1.0	unseen	False	False	1.287171118998799	2.97903647000021	1.0	38.0	11782.7416	False		False			
01	ses-024	40	images_fmri/weasel/weasel_06s.jpg	seen	8394	700	6	None	1798.0	25330.0	6.0	seen-between-within	3	3	177.32999999999996	2.98	True	False	177.33433951799998	180.2974009169993	[['x', 178.35058352399938]]	2.0	seen	False	True	1.02058352399942	2.9630613989993435	1.0	39.0	11787.2238	False		False	0.0	107.27759999999944	24.0
01	ses-024	41	images_fmri/backpack/backpack_06s.jpg	seen	282	24	6	None	50.0	714.0	6.0	seen-within	2	3	181.8	2.98	False	False	181.80312832199888	184.7819397080002	[['a', 183.40833663400008], ['a', 183.53514884799915]]	1.0	seen	False	False	1.608336634000068	2.978811386001325	1.0	40.0	11791.6926	False		False	0.0	44.69930000000022	10.0
01	ses-024	42	images_fmri/crate/crate_06s.jpg	seen	2142	179	6	None	434.0	6271.0	6.0	seen-between-within	3	3	186.27	2.98	True	False	186.26502089899984	189.25166642399927	[['x', 187.23035402099958]]	2.0	seen	False	True	0.9603540209995742	2.9866455249994037	1.0	41.0	11796.1545	False		False	0.0	80.46140000000014	18.0
01	ses-024	43	images_fmri/fence/fence_06s.jpg	seen	2862	239	6	None	576.0	8327.0	6.0	seen-within	2	3	190.74	2.98	True	True	190.73574437299976	193.71911175899916	[['b', 191.93004838900015]]	2.0	seen	False	True	1.1900483890001397	2.9833673859993723	1.0	42.0	11800.6252	False		False	0.0	143.03160000000025	32.0
01	ses-024	44	images_fmri/kale/kale_06s.jpg	unseen	4062	339	6	None	861.0	12311.0	6.0	unseen-between	1	3	195.21	2.98	False	True	195.2011741999995	198.1857549790002	[['x', 196.1572866539991]]	-1.0	unseen	False	False	0.9472866539991004	2.98458077900068	1.0	43.0	11805.0906	False		False			
01	ses-024	45	images_fmri/mango/mango_06s.jpg	seen	4602	384	6	None	967.0	13779.0	6.0	seen-within	2	3	199.68	2.98	True	True	199.68118795999908	202.64805927799895	[['b', 200.7698031459986]]	2.0	seen	False	True	1.0898031459985873	2.966871317999903	1.0	44.0	11809.5706	False		False	0.0	134.09409999999843	30.0
01	ses-024	46	images_fmri/mailbox/mailbox_06s.jpg	seen	4554	380	6	None	961.0	13691.0	6.0	seen-within	2	3	204.15	2.98	True	False	204.15211065499895	207.13376389099903	[['x', 205.12921131300027]]	2.0	seen	False	True	0.9792113130002632	2.9816532360000565	1.0	45.0	11814.0416	False		False	0.0	75.9994000000006	17.0
01	ses-024	47	images_fmri/lemon/lemon_06s.jpg	seen	4326	361	6	None	915.0	13085.0	6.0	seen-within-between	3	3	208.62	2.98	False	True	208.6143798559988	211.60232619099952	[['x', 209.75211284800025]]	-1.0	unseen	True	False	1.1321128480002471	2.9879463350007427	1.0	46.0	11818.5038	False		False	7.0	0.0	521.0
01	ses-024	48	images_fmri/easel/easel_06s.jpg	seen	2694	225	6	None	543.0	7883.0	6.0	seen-between	2	3	213.09	2.98	False	False	213.0843361139996	216.06421750499976	[['b', 214.0894240589987]]	-1.0	unseen	True	False	0.9994240589986988	2.9798813910001627	1.0	47.0	11822.9738	False		False	7.0	0.0	260.0
01	ses-024	49	images_fmri/paint/paint_06s.jpg	seen	5250	438	6	None	1097.0	15620.0	6.0	seen-within	2	3	217.56	2.98	True	False	217.5669016009997	220.53433366100035	[['x', 218.56697617200007]]	2.0	seen	False	True	1.0069761720000656	2.9674320600006467	1.0	48.0	11827.4564	False		False	0.0	75.9971999999998	17.0
01	ses-024	50	images_fmri/racket/racket_06s.jpg	seen	6078	507	6	None	1271.0	18108.0	6.0	seen-between-within	3	3	222.03	2.98	False	False	222.0354916739998	225.00229223899987	[['x', 223.08504366299894]]	2.0	seen	False	True	1.0550436629989406	2.966800565000085	1.0	49.0	11831.9249	False		False	0.0	178.8173000000006	40.0
01	ses-024	51	images_fmri/syringe/syringe_06s.jpg	unseen	7434	620	6	None	1605.0	22675.0	6.0	unseen-within	1	3	226.5	2.98	True	True	226.5024899580003	229.4827146869993	[['x', 227.52725071900022]]	-1.0	unseen	False	False	1.0272507190002216	2.980224728999019	1.0	50.0	11836.3919	False		False			
01	ses-024	52	images_fmri/easel/easel_06s.jpg	seen	2694	225	6	None	543.0	7883.0	6.0	seen-between-within	3	3	230.97	2.98	False	True	230.968599238	233.9503568399996	[['b', 231.89087004300018]]	2.0	seen	False	True	0.9208700430001784	2.9817576019995613	1.0	51.0	11840.8581	False		False	0.0	17.884299999999712	4.0
01	ses-024	53	images_fmri/hairbrush/hairbrush_06s.jpg	seen	3558	297	6	None	735.0	10541.0	6.0	seen-between-within	3	3	235.44	2.98	False	True	235.4319955689989	238.41907206499852	[['b', 236.29200303499965]]	2.0	seen	False	True	0.8520030349996546	2.987076495999645	1.0	52.0	11845.3215	False		False	0.0	219.03230000000076	49.0
01	ses-024	54	images_fmri/rabbit/rabbit_06s.jpg	seen	6054	505	6	None	1266.0	18042.0	6.0	seen-within-between	3	3	239.91	2.98	True	False	239.9162536469994	242.87935615399877	[['b', 241.38403534399913]]	-1.0	unseen	True	False	1.4740353439991338	2.9631025069993484	1.0	53.0	11849.8057	False		False	7.0	0.0	258.0
01	ses-024	55	images_fmri/gondola/gondola_06s.jpg	seen	3330	278	6	None	692.0	9900.0	6.0	seen-within-between	3	3	244.38	2.98	False	True	244.38050074499915	247.36617384300007	[['x', 245.54562773999896]]	-1.0	unseen	True	False	1.1656277399989676	2.985673098000916	1.0	54.0	11854.2700	False		False	7.0	0.0	175.0
01	ses-024	56	images_fmri/train/train_06s.jpg	seen	7926	661	6	None	1699.0	23973.0	6.0	seen-within-between	3	3	248.85	2.98	True	True	248.85156238499985	251.8319810969988	[['x', 249.88313933399877]]	-1.0	unseen	True	False	1.0331393339987756	2.9804187119989365	1.0	55.0	11858.7410	False		False	7.0	0.0	347.0
01	ses-024	57	images_fmri/cage/cage_06s.jpg	unseen	1230	103	6	None	237.0	3523.0	6.0	unseen-between	1	3	253.32	2.98	False	True	253.31765803300004	256.30198685699906	[['x', 254.29980630799946]]	-1.0	unseen	False	False	0.9798063079994676	2.9843288239990216	1.0	56.0	11863.2071	False		False			
01	ses-024	58	images_fmri/popcorn/popcorn_06s.jpg	unseen	5826	486	6	None	1224.0	17416.0	6.0	unseen-between	1	3	257.79	2.98	False	True	257.7848597199991	260.7666457289997	[['x', 258.65580470199893]]	-1.0	unseen	False	False	0.8658047019989112	2.9817860090006434	1.0	57.0	11867.6743	False		False			
01	ses-024	59	images_fmri/robot/robot_06s.jpg	seen	6330	528	6	None	1319.0	18769.0	6.0	seen-within-between	3	3	262.26	2.98	True	False	262.2659276659997	265.2301113279991	[['b', 263.2510404859986]]	-1.0	unseen	True	False	0.9910404859986102	2.9641836619994137	1.0	58.0	11872.1554	False		False	7.0	0.0	362.0
01	ses-024	60	images_fmri/nose/nose_06s.jpg	unseen	5094	425	6	None	1064.0	15138.0	6.0	unseen-between	1	3	266.73	2.98	True	False	266.7341176179998	269.7120870509989	[['b', 268.2868504119997]]	-1.0	unseen	False	False	1.556850411999676	2.977969432999089	1.0	59.0	11876.6236	False		False			
