subject	session	TrialNumber	image_path	condition	image_nr	category_nr	exemplar_nr	test_image_nr	things_category_nr	things_image_nr	things_exemplar_nr	subcondition	repetition	run	onset	duration	response_mapping_flip_h	response_mapping_flip_v	onset_flip	offset_flip	keypresses	response	response_txt	error	response_confidence	response_time	duration_flip	ran	order	session_trial_time	atypical	atypical_log	exclude_session	delay_days	delay_seconds	trials_since_lastrep
01	ses-024	1	images_fmri/footrest/footrest_06s.jpg	seen	3102	259	6	None	634.0	9148.0	6.0	seen-within-between	3	2	3.0	2.98	True	False	2.997595266000644	5.981404723001106	[['b', 5.330039041000418]]	-1.0	unseen	True	False	2.3300390410004184	2.9838094570004614	1.0	0.0	11251.5505	False		False	7.0	0.0	277.0
01	ses-024	2	images_fmri/crib/crib_06s.jpg	unseen	2190	183	6	None	442.0	6394.0	6.0	unseen-between	1	2	7.47	2.98	False	True	7.468926804000148	10.448150037000232	[['x', 8.577225979001014]]	-1.0	unseen	False	False	1.1072259790010142	2.9792232330000843	1.0	1.0	11256.0218	False		False			
01	ses-024	3	images_fmri/teapot/teapot_06s.jpg	unseen	7590	633	6	None	1635.0	23094.0	6.0	unseen-within	1	2	11.94	2.98	True	True	11.934359222001149	14.915203287000622	[['x', 13.075906949001364]]	-1.0	unseen	False	False	1.135906949001365	2.9808440649994736	1.0	2.0	11260.4873	False		False			
01	ses-024	4	images_fmri/pill/pill_06s.jpg	seen	5598	467	6	None	1175.0	16719.0	6.0	seen-between	2	2	16.41	2.98	False	False	16.401516986001297	19.37991450300069	[['b', 17.58299707000151]]	-1.0	unseen	True	False	1.1729970700015109	2.9783975169993937	1.0	3.0	11264.9544	False		False	7.0	0.0	172.0
01	ses-024	5	images_fmri/marshmallow/marshmallow_06s.jpg	seen	4650	388	6	None	978.0	13939.0	6.0	seen-between	2	2	20.88	2.98	False	True	20.88003495200064	23.846527796000373	[['x', 22.36103165700115]]	-1.0	unseen	True	False	1.48103165700115	2.966492843999731	1.0	4.0	11269.4329	False		False	7.0	0.0	121.0
01	ses-024	6	images_fmri/speaker/speaker_06s.jpg	seen	7050	588	6	None	1510.0	21355.0	6.0	seen-between-within	3	2	25.35	2.98	True	True	25.34897415800151	28.334034909001275	[['b', 26.360358326001005]]	2.0	seen	False	True	1.010358326001004	2.9850607509997644	1.0	5.0	11273.9019	False		False	0.0	150.29290000000037	11.0
01	ses-024	7	images_fmri/suspenders/suspenders_06s.jpg	unseen	7398	617	6	None	1590.0	22459.0	6.0	unseen-within	1	2	29.82	2.98	False	False	29.818904943000238	32.800653323000006	[['b', 30.759244729000784]]	-1.0	unseen	False	False	0.9392447290007836	2.981748379999772	1.0	6.0	11278.3718	False		False			
01	ses-024	8	images_fmri/marshmallow/marshmallow_06s.jpg	seen	4650	388	6	None	978.0	13939.0	6.0	seen-between-within	3	2	34.29	2.98	False	False	34.28383154800031	37.26854197400098	[['x', 35.321982168999966]]	2.0	seen	False	True	1.031982168999967	2.9847104260006745	1.0	7.0	11282.8367	False		False	0.0	13.403800000000047	3.0
01	ses-024	9	images_fmri/pacifier/pacifier_06s.jpg	seen	5226	436	6	None	1094.0	15578.0	6.0	seen-within-between	3	2	38.76	2.98	False	False	38.76652951000142	41.72999626300043	[['b', 39.891231595000136]]	-1.0	unseen	True	False	1.1312315950001377	2.963466752999011	1.0	8.0	11287.3194	False		False	7.0	0.0	102.0
01	ses-024	10	images_fmri/rollerblade/rollerblade_06s.jpg	seen	6366	531	6	None	1327.0	18881.0	6.0	seen-between	2	2	43.23	2.98	True	False	43.231075835999945	46.21510787400075	[['b', 45.054103636000946]]	-1.0	unseen	True	False	1.8241036360009488	2.984032038000805	1.0	9.0	11291.7840	False		False	7.0	0.0	341.0
01	ses-024	11	images_fmri/oatmeal/oatmeal_06s.jpg	seen	5118	427	6	None	1070.0	15213.0	6.0	seen-within-between	3	2	47.7	2.98	True	True	47.69786413300062	50.68033996500162	[['x', 49.091798121000465]]	-1.0	unseen	True	False	1.3917981210004626	2.9824758320010005	1.0	10.0	11296.2508	False		False	7.0	0.0	198.0
01	ses-024	12	images_fmri/flashbulb/flashbulb_06s.jpg	unseen	2994	250	6	None	611.0	8832.0	6.0	unseen-between	1	2	52.17	2.98	True	False	52.16666306700063	55.14688340500106	[['b', 54.09584003300006]]	-1.0	unseen	False	False	1.925840033000057	2.980220338000436	1.0	11.0	11300.7196	False		False			
01	ses-024	13	images_fmri/suspenders/suspenders_06s.jpg	seen	7398	617	6	None	1590.0	22459.0	6.0	seen-within	2	2	56.64	2.98	True	False	56.63429947400073	59.61766813600116	[['x', 57.72582022700044]]	2.0	seen	False	True	1.0858202270004398	2.98336866200043	1.0	12.0	11305.1872	False		False	0.0	26.8153999999995	6.0
01	ses-024	14	images_fmri/macadamia/macadamia_06n.jpg	unseen	4530	378	6	None	952.0	13578.0	6.0	unseen-within	1	2	61.11	2.98	False	True	61.11595381700136	64.07894635400044	[['x', 62.64159880900115]]	-1.0	unseen	False	False	1.531598809001153	2.962992536999081	1.0	13.0	11309.6689	False		False			
01	ses-024	15	images_fmri/macadamia/macadamia_06n.jpg	seen	4530	378	6	None	952.0	13578.0	6.0	seen-within	2	2	65.58	2.98	False	False	65.5796311640006	68.56320136400063	[['x', 66.8785418180014]]	2.0	seen	False	True	1.2985418180013966	2.983570200000031	1.0	14.0	11314.1325	False		False	0.0	4.463599999999133	1.0
01	ses-024	16	images_fmri/fire/fire_06s.jpg	seen	2934	245	6	None	591.0	8536.0	6.0	seen-within-between	3	2	70.05	2.98	True	True	70.050956907	73.03064732000166	[['x', 72.81153225600065]]	-1.0	unseen	True	False	2.761532256000649	2.979690413001663	1.0	15.0	11318.6039	False		False	7.0	0.0	362.0
01	ses-024	17	images_fmri/paintbrush/paintbrush_06s.jpg	unseen	5262	439	6	None	1098.0	15633.0	6.0	unseen-within	1	2	74.52	2.98	False	True	74.51190815300106	77.49631604300157	[['x', 75.95651109300161]]	-1.0	unseen	False	False	1.436511093001613	2.9844078900005115	1.0	16.0	11323.0648	False		False			
01	ses-024	18	images_fmri/boa/boa_06s.jpg	seen	786	66	6	None	151.0	2305.0	6.0	seen-within-between	3	2	78.99	2.98	True	True	78.98507378500108	81.96321547400112	[['x', 80.95367766600066]]	-1.0	unseen	True	False	1.9636776660006632	2.97814168900004	1.0	17.0	11327.5380	False		False	7.0	0.0	397.0
01	ses-024	19	images_fmri/sundae/sundae_06s.jpg	unseen	7350	613	6	None	1583.0	22353.0	6.0	unseen-within	1	2	83.46	2.98	False	False	83.46424552100143	86.42925159300103	[['b', 84.80132192400015]]	-1.0	unseen	False	False	1.3413219240001553	2.9650060719995963	1.0	18.0	11332.0172	False		False			
01	ses-024	20	images_fmri/envelope/envelope_06s.jpg	seen	2790	233	6	None	559.0	8100.0	6.0	seen-between	2	2	87.92999999999998	2.98	False	False	87.93223638500058	90.9150058110008	[['b', 89.02481805300158]]	-1.0	unseen	True	False	1.0948180530016032	2.982769426000232	1.0	19.0	11336.4851	False		False	7.0	0.0	304.0
01	ses-024	21	images_fmri/plastic_film/plastic_film_06s.jpg	seen	5682	474	6	None	1197.0	17017.0	6.0	seen-between	2	2	92.4	2.98	True	True	92.39590105200114	95.38354093500128	[['x', 93.55532041900005]]	-1.0	unseen	True	False	1.1553204190000486	2.9876398830001563	1.0	20.0	11340.9488	False		False	7.0	0.0	227.0
01	ses-024	22	images_fmri/boy/boy_06s.jpg	seen	930	78	6	None	185.0	2804.0	6.0	seen-between-within	3	2	96.87	2.98	False	True	96.86686860000007	99.85028175000116	[['b', 97.71550185800152]]	2.0	seen	False	True	0.8455018580015121	2.98341315000107	1.0	21.0	11345.4198	False		False	0.0	266.5092000000004	37.0
01	ses-024	23	images_fmri/axe/axe_06n.jpg	unseen	258	22	6	None	46.0	638.0	6.0	unseen-between	1	2	101.34	2.98	True	True	101.32865475000108	104.31291526300085	[['x', 103.81336879100127]]	-1.0	unseen	False	False	2.4733687910012634	2.9842605129997537	1.0	22.0	11349.8816	False		False			
01	ses-024	24	images_fmri/paintbrush/paintbrush_06s.jpg	seen	5262	439	6	None	1098.0	15633.0	6.0	seen-within	2	2	105.81	2.98	False	False	105.81638042400118	108.78018104000148	[['x', 106.87219102100062]]	2.0	seen	False	True	1.062191021000615	2.9638006160002988	1.0	23.0	11354.3693	False		False	0.0	31.30450000000019	7.0
01	ses-024	25	images_fmri/frog/frog_06s.jpg	seen	3126	261	6	None	645.0	9287.0	6.0	seen-between	2	2	110.28	2.98	True	True	110.28418982400036	113.26489422500164	[['x', 111.47020874900045]]	-1.0	unseen	True	False	1.1902087490004476	2.980704401001276	1.0	24.0	11358.8371	False		False	7.0	0.0	396.0
01	ses-024	26	images_fmri/duster/duster_06s.jpg	unseen	2646	221	6	None	535.0	7769.0	6.0	unseen-within	1	2	114.75	2.98	True	False	114.74796555400098	117.72904006600038	[['b', 116.36949003900008]]	-1.0	unseen	False	False	1.619490039000084	2.9810745119993958	1.0	25.0	11363.3009	False		False			
01	ses-024	27	images_fmri/cellphone/cellphone_06s.jpg	seen	1530	128	6	None	294.0	4291.0	6.0	seen-within-between	3	2	119.22	2.98	False	False	119.21610516100009	122.1964900540006	[['b', 121.043478005]]	-1.0	unseen	True	False	1.8234780049999983	2.980384893000519	1.0	26.0	11367.7690	False		False	7.0	0.0	341.0
01	ses-024	28	images_fmri/jar/jar_06s.jpg	unseen	3990	333	6	None	841.0	12025.0	6.0	unseen-within	1	2	123.69	2.98	False	True	123.67810096600078	126.66504153800088	[['x', 124.79415251200044]]	-1.0	unseen	False	False	1.1041525120004394	2.986940572000094	1.0	27.0	11372.2310	False		False			
01	ses-024	29	images_fmri/rattle/rattle_06s.jpg	seen	6162	514	6	None	1288.0	18331.0	6.0	seen-within-between	3	2	128.16	2.98	True	False	128.16522783000073	131.13283086000047	[['b', 129.2085693170011]]	-1.0	unseen	True	False	1.048569317001096	2.9676030299997365	1.0	28.0	11376.7181	False		False	7.0	0.0	251.0
01	ses-024	30	images_fmri/mushroom/mushroom_06n.jpg	seen	4986	416	6	None	1041.0	14831.0	6.0	seen-within-between	3	2	132.63	2.98	False	True	132.63120661000175	135.61248824500035	[['x', 134.56507113800035]]	-1.0	unseen	True	False	1.935071138000353	2.981281634998595	1.0	29.0	11381.1841	False		False	7.0	0.0	191.0
01	ses-024	31	images_fmri/bed/bed_06n.jpg	seen	522	44	6	None	109.0	1650.0	6.0	seen-within	2	2	137.1	2.98	False	True	137.09732886100028	140.08145783700093	[['b', 138.0135374320016]]	2.0	seen	False	True	0.9135374320016184	2.9841289760006475	1.0	30.0	11385.6502	False		False	0.0	490.02280000000064	87.0
01	ses-024	32	images_fmri/shield/shield_06s.jpg	seen	6654	555	6	None	1421.0	20160.0	6.0	seen-between	2	2	141.57	2.98	True	False	141.5644042310014	144.54434438099997	[['b', 143.1194244970011]]	-1.0	unseen	True	False	1.5494244970010982	2.979940149998584	1.0	31.0	11390.1173	False		False	7.0	0.0	124.0
01	ses-024	33	images_fmri/nail_polish/nail_polish_06s.jpg	seen	5010	418	6	None	1050.0	14952.0	6.0	seen-between-within	3	2	146.04	2.98	True	False	146.03131378000035	149.0141814280014	[['x', 147.1313700130013]]	2.0	seen	False	True	1.0913700130012955	2.982867648001047	1.0	32.0	11394.5842	False		False	0.0	324.6282999999985	50.0
01	ses-024	34	images_fmri/horse/horse_06s.jpg	unseen	3822	319	6	None	799.0	11426.0	6.0	unseen-between	1	2	150.51	2.98	False	True	150.5128832800001	153.47651459000008	[['x', 152.50089932100127]]	-1.0	unseen	False	False	1.9908993210012795	2.9636313099999825	1.0	33.0	11399.0658	False		False			
01	ses-024	35	images_fmri/parsley/parsley_06s.jpg	unseen	5370	448	6	None	1123.0	15997.0	6.0	unseen-within	1	2	154.98	2.98	False	True	154.977512974001	157.96155031700073	[['x', 156.18810704099997]]	-1.0	unseen	False	False	1.2081070409999768	2.984037342999727	1.0	34.0	11403.5304	False		False			
01	ses-024	36	images_fmri/tumbleweed/tumbleweed_06s.jpg	unseen	8046	671	6	None	1728.0	24358.0	6.0	unseen-between	1	2	159.45	2.98	False	True	159.44719920900025	162.42718046200025	[['x', 160.33686283300085]]	-1.0	unseen	False	False	0.8868628330008619	2.9799812530000054	1.0	35.0	11408.0001	False		False			
01	ses-024	37	images_fmri/leggings/leggings_06s.jpg	seen	4302	359	6	None	913.0	13060.0	6.0	seen-within-between	3	2	163.92	2.98	False	False	163.9147331990007	166.89289637000002	[['b', 165.65712774500025]]	-1.0	unseen	True	False	1.7371277450002651	2.9781631709993235	1.0	36.0	11412.4676	False		False	7.0	0.0	204.0
01	ses-024	38	images_fmri/waffle_iron/waffle_iron_06s.jpg	seen	8238	687	6	None	1772.0	24984.0	6.0	seen-between	2	2	168.39	2.98	True	False	168.39654932200028	171.36381193700072	[['b', 169.57811764100006]]	-1.0	unseen	True	False	1.1881176410000762	2.967262615000436	1.0	37.0	11416.9495	False		False	7.0	0.0	257.0
01	ses-024	39	images_fmri/plastic_film/plastic_film_06s.jpg	seen	5682	474	6	None	1197.0	17017.0	6.0	seen-between-within	3	2	172.86	2.98	False	True	172.85983555500025	175.8455149320016	[['b', 173.90919624600065]]	2.0	seen	False	True	1.0491962460006334	2.985679377001361	1.0	38.0	11421.4127	False		False	0.0	80.46390000000065	18.0
01	ses-024	40	images_fmri/chest1/chest1_06s.jpg	seen	1650	138	6	None	320.0	4646.0	6.0	seen-within-between	3	2	177.32999999999996	2.98	True	False	177.33059734500057	180.31131365800135	[['b', 178.81572740800038]]	-1.0	unseen	True	False	1.4857274080004288	2.980716313000812	1.0	39.0	11425.8835	False		False	7.0	0.0	172.0
01	ses-024	41	images_fmri/cranberry/cranberry_06n.jpg	unseen	2118	177	6	None	431.0	6223.0	6.0	unseen-between	1	2	181.8	2.98	False	False	181.7980848710013	184.7820810350004	[['b', 182.76412738800173]]	-1.0	unseen	False	False	0.9641273880017138	2.983996163999109	1.0	40.0	11430.3510	False		False			
01	ses-024	42	images_fmri/parsley/parsley_06s.jpg	seen	5370	448	6	None	1123.0	15997.0	6.0	seen-within	2	2	186.27	2.98	False	False	186.26265057300043	189.24789955100096	[['x', 187.30642054800046]]	2.0	seen	False	True	1.03642054800045	2.985248978000527	1.0	41.0	11434.8156	False		False	0.0	31.28520000000026	7.0
01	ses-024	43	images_fmri/chin/chin_06s.jpg	seen	1698	142	6	None	331.0	4787.0	6.0	seen-within-between	3	2	190.74	2.98	True	True	190.74588480900093	193.710446907	[['x', 193.3847670660016]]	-1.0	unseen	True	False	2.6447670660015774	2.964562097999078	1.0	42.0	11439.2988	False		False	7.0	0.0	142.0
01	ses-024	44	images_fmri/platypus/platypus_06s.jpg	unseen	5706	476	6	None	1199.0	17043.0	6.0	unseen-within	1	2	195.21	2.98	False	False	195.20952139900143	198.1940719870017	[['y', 197.65266080100082]]	-2.0	unseen	False	True	2.4426608010008124	2.9845505880002747	1.0	43.0	11443.7624	False		False			
01	ses-024	45	images_fmri/book/book_06s.jpg	seen	846	71	6	None	166.0	2531.0	6.0	seen-within	2	2	199.68	2.98	True	False	199.67658166600089	202.66174942700127	[['x', 200.72146110800168]]	2.0	seen	False	True	1.0414611080016698	2.985167761000412	1.0	44.0	11448.2295	False		False	0.0	512.3653999999988	92.0
01	ses-024	46	images_fmri/snail/snail_06s.jpg	unseen	6882	574	6	None	1477.0	20922.0	6.0	unseen-between	1	2	204.15	2.98	False	False	204.1455033580005	207.1306251980004	[['b', 205.20074367300003]]	-1.0	unseen	False	False	1.050743673000028	2.98512183999992	1.0	45.0	11452.6984	False		False			
01	ses-024	47	images_fmri/pill/pill_06s.jpg	seen	5598	467	6	None	1175.0	16719.0	6.0	seen-between-within	3	2	208.62	2.98	True	False	208.61271669400048	211.59358239300127	[['x', 209.6974580540009]]	2.0	seen	False	True	1.0774580540008856	2.980865699000788	1.0	46.0	11457.1656	False		False	0.0	192.21119999999974	43.0
01	ses-024	48	images_fmri/mop/mop_06s.jpg	seen	4878	407	6	None	1020.0	14533.0	6.0	seen-between	2	2	213.09	2.98	False	True	213.0978459620001	216.0591554450002	[['x', 214.09296795800037]]	-1.0	unseen	True	False	1.0029679580003688	2.96130948300015	1.0	47.0	11461.6508	False		False	7.0	0.0	257.0
01	ses-024	49	images_fmri/woman/woman_06s.jpg	seen	8550	713	6	None	1833.0	25812.0	6.0	seen-between	2	2	217.56	2.98	True	False	217.55928768000007	220.5432907940012	[['a', 219.51165730200046]]	-2.0	unseen	True	True	1.951657302000456	2.984003114001098	1.0	48.0	11466.1122	False		False	7.0	0.0	137.0
01	ses-024	50	images_fmri/mop/mop_06s.jpg	seen	4878	407	6	None	1020.0	14533.0	6.0	seen-between-within	3	2	222.03	2.98	True	False	222.02913229800103	225.0082439430007	[['x', 223.18355645300107]]	2.0	seen	False	True	1.1535564530010731	2.979111644999648	1.0	49.0	11470.5820	False		False	0.0	8.9312000000009	2.0
01	ses-024	51	images_fmri/jar/jar_06s.jpg	seen	3990	333	6	None	841.0	12025.0	6.0	seen-within	2	2	226.5	2.98	True	True	226.49721793900065	229.47662254600075	[['b', 228.67071467500136]]	2.0	seen	False	True	2.1707146750013635	2.979404607000106	1.0	50.0	11475.0501	False		False	0.0	102.81910000000062	23.0
01	ses-024	52	images_fmri/snake/snake_06s.jpg	seen	6894	575	6	None	1478.0	20941.0	6.0	seen-within	2	2	230.97	2.98	True	False	230.96299008900127	233.94317743900135	[['x', 232.05387440600134]]	2.0	seen	False	True	1.0838744060013423	2.980187350000051	1.0	51.0	11479.5159	False		False	0.0	570.472600000001	105.0
01	ses-024	53	images_fmri/violin/violin_06s.jpg	seen	8226	686	6	None	1765.0	24877.0	6.0	seen-within-between	3	2	235.44	2.98	False	True	235.4449762550012	238.4080644600017	[['x', 237.04970570500154]]	-1.0	unseen	True	False	1.609705705001545	2.963088205000531	1.0	52.0	11483.9979	False		False	7.0	0.0	143.0
01	ses-024	54	images_fmri/garter/garter_06s.jpg	unseen	3198	267	6	None	660.0	9480.0	6.0	unseen-between	1	2	239.91	2.98	True	True	239.91382684100063	242.8949821630013	[['x', 243.05363601700083]]	-1.0	unseen	False	False	3.14363601700083	2.981155322000632	1.0	53.0	11488.4667	False		False			
01	ses-024	55	images_fmri/cardigan/cardigan_06s.jpg	seen	1422	119	6	None	274.0	4023.0	6.0	seen-between	2	2	244.38	2.98	False	True	244.374976694	247.35957935200167	[['x', 246.16823318200113]]	-1.0	unseen	True	False	1.788233182001136	2.984602658001677	1.0	54.0	11492.9279	False		False	7.0	0.0	289.0
01	ses-024	56	images_fmri/egg_roll/egg_roll_06s.jpg	unseen	2718	227	6	None	548.0	7955.0	6.0	unseen-within	1	2	248.85	2.98	True	True	248.846197158	251.8241128990012	[['x', 250.28952797700003]]	-1.0	unseen	False	False	1.43952797700004	2.9779157410011976	1.0	55.0	11497.3991	False		False			
01	ses-024	57	images_fmri/frog/frog_06s.jpg	seen	3126	261	6	None	645.0	9287.0	6.0	seen-between-within	3	2	253.32	2.98	True	True	253.3126099050005	256.29169725500105	[['b', 254.6155426410005]]	2.0	seen	False	True	1.2955426410005089	2.9790873500005546	1.0	56.0	11501.8655	False		False	0.0	143.02839999999924	32.0
01	ses-024	58	images_fmri/viewfinder/viewfinder_06s.jpg	unseen	8214	685	6	None	1764.0	24865.0	6.0	unseen-within	1	2	257.79	2.98	True	False	257.7935877300006	260.75927456700083	[['b', 260.7062190150009]]	-1.0	unseen	False	False	2.916219015000877	2.9656868370002485	1.0	57.0	11506.3465	False		False			
01	ses-024	59	images_fmri/calculator/calculator_06s.jpg	unseen	1254	105	6	None	241.0	3576.0	6.0	unseen-within	1	2	262.26	2.98	True	True	262.257836621	265.2427740310013	[['x', 264.3198394760002]]	-1.0	unseen	False	False	2.0598394760002066	2.9849374100012938	1.0	58.0	11510.8107	False		False			
01	ses-024	60	images_fmri/meatball/meatball_06s.jpg	seen	4734	395	6	None	990.0	14101.0	6.0	seen-between	2	2	266.73	2.98	False	True	266.72472859700065	269.707086452001	[['x', 268.46140118400035]]	-1.0	unseen	True	False	1.7314011840003332	2.982357855000373	1.0	59.0	11515.2776	False		False	7.0	0.0	149.0
