subject	session	TrialNumber	image_path	condition	image_nr	category_nr	exemplar_nr	test_image_nr	things_category_nr	things_image_nr	things_exemplar_nr	subcondition	repetition	run	onset	duration	response_mapping_flip_h	response_mapping_flip_v	onset_flip	offset_flip	keypresses	response	response_txt	error	response_confidence	response_time	duration_flip	ran	order	session_trial_time	atypical	atypical_log	exclude_session	delay_days	delay_seconds	trials_since_lastrep
03	ses-009	1	images_fmri/groundhog/groundhog_02s.jpg	seen	3482	291	2	None	719.0	10300.0	2.0	seen-between	2	3	3.0	2.98	False	False	2.9840190410614014	5.9673168659210205	[['y', 4.607046842575073]]	-2.0	unseen	True	True	1.6070468425750732	2.983297824859619	1.0	0.0	1623865126.9085	False		False	7.0	0.0	385.0
03	ses-009	2	images_fmri/tiara/tiara_02s.jpg	unseen	7694	642	2	None	1656.0	23379.0	2.0	unseen-within	1	3	7.47	2.98	True	True	7.45583701133728	10.434918880462646	[['y', 8.950358867645264]]	1.0	seen	True	False	1.480358867645264	2.979081869125366	1.0	1.0	1623865131.3803	False		False			
03	ses-009	3	images_fmri/ferret/ferret_02s.jpg	seen	2882	241	2	None	579.0	8373.0	2.0	seen-between	2	3	11.94	2.98	False	False	11.923702955245972	14.901917934417725	[['b', 13.667311906814575]]	-1.0	unseen	True	False	1.7273119068145757	2.978214979171753	1.0	2.0	1623865135.8482	False		False	7.0	0.0	359.0
03	ses-009	4	images_fmri/aircraft_carrier/aircraft_carrier_02s.jpg	seen	26	3	2	None	10.0	128.0	2.0	seen-between-within	3	3	16.41	2.98	False	True	16.390960931777954	19.37359595298767	[['b', 17.29318594932556]]	2.0	seen	False	True	0.8831859493255614	2.982635021209717	1.0	3.0	1623865140.3155	False		False	0.0	733.0320000648499	121.0
03	ses-009	5	images_fmri/jersey/jersey_02s.jpg	seen	4022	336	2	None	847.0	12107.0	2.0	seen-within	2	3	20.88	2.98	True	False	20.870349884033203	23.84187793731689	[['x', 21.742182970046997]]	2.0	seen	False	True	0.8621829700469981	2.9715280532836914	1.0	4.0	1623865144.7948	False		False	0.0	141.81030011177063	10.0
03	ses-009	6	images_fmri/crayon/crayon_02s.jpg	unseen	2162	181	2	None	436.0	6299.0	2.0	unseen-within	1	3	25.35	2.98	True	False	25.338798999786377	28.31794786453247	[['a', 26.878133058547974]]	-2.0	unseen	False	True	1.5281330585479722	2.9791488647460938	1.0	5.0	1623865149.2633	False		False			
03	ses-009	7	images_fmri/forklift/forklift_02s.jpg	seen	3110	260	2	None	636.0	9168.0	2.0	seen-between	2	3	29.82	2.98	True	True	29.80201888084412	32.78438401222229	[['x', 32.398085832595825]]	-1.0	unseen	True	False	2.578085832595825	2.982365131378174	1.0	6.0	1623865153.7265	False		False	7.0	0.0	284.0
03	ses-009	8	images_fmri/garlic/garlic_02s.jpg	unseen	3182	266	2	None	659.0	9464.0	2.0	unseen-within	1	3	34.29	2.98	True	False	34.27127194404602	37.25077486038208	[['y', 35.87288284301758], ['x', 36.6915819644928]]	1.0	seen	True	False	1.582882843017579	2.97950291633606	1.0	7.0	1623865158.1958	False		False			
03	ses-009	9	images_fmri/jeans/jeans_02s.jpg	seen	3998	334	2	None	843.0	12047.0	2.0	seen-within	2	3	38.76	2.98	False	True	38.754064083099365	41.72356796264648	[['b', 39.66222286224365]]	2.0	seen	False	True	0.9022228622436544	2.969503879547119	1.0	8.0	1623865162.6786	False		False	0.0	500.6182999610901	69.0
03	ses-009	10	images_fmri/powder/powder_02s.jpg	seen	5918	494	2	None	1237.0	17591.0	2.0	seen-between-within	3	3	43.23	2.98	True	False	43.21852493286133	46.18858289718628	[['x', 44.134202003479004]]	2.0	seen	False	True	0.904202003479007	2.970057964324951	1.0	9.0	1623865167.1430	False		False	0.0	249.0907998085022	34.0
03	ses-009	11	images_fmri/squeegee/squeegee_02s.jpg	unseen	7118	594	2	None	1528.0	21595.0	2.0	unseen-within	1	3	47.7	2.98	True	True	47.69073390960693	50.66837787628174	[['b', 49.2920458316803]]	2.0	seen	True	True	1.592045831680295	2.9776439666748047	1.0	10.0	1623865171.6152	False		False			
03	ses-009	12	images_fmri/helicopter/helicopter_02s.jpg	unseen	3734	312	2	None	776.0	11100.0	2.0	unseen-within	1	3	52.17	2.98	False	True	52.15603590011597	55.133787870407104	[['y', 53.721139907836914]]	-2.0	unseen	False	True	1.5511399078369124	2.9777519702911377	1.0	11.0	1623865176.0805	False		False			
03	ses-009	13	images_fmri/melon/melon_02s.jpg	seen	4742	396	2	None	995.0	14164.0	2.0	seen-within-between	3	3	56.64	2.98	True	False	56.621312856674194	59.6004319190979	[['a', 59.01329684257507]]	-2.0	unseen	True	True	2.3732968425750727	2.979119062423706	1.0	12.0	1623865180.5458	False		False	7.0	0.0	267.0
03	ses-009	14	images_fmri/ship/ship_02s.jpg	seen	6662	556	2	None	1422.0	20168.0	2.0	seen-within-between	3	3	61.11	2.98	False	True	61.10329985618591	64.06974697113037	[['b', 63.09787392616272]]	2.0	seen	False	True	1.9878739261627203	2.966447114944458	1.0	13.0	1623865185.0278	False		False	7.0	0.0	191.0
03	ses-009	15	images_fmri/napkin_ring/napkin_ring_02s.jpg	seen	5018	419	2	None	1052.0	14975.0	2.0	seen-between-within	3	3	65.58	2.98	False	False	65.56992506980896	68.5542049407959	[['x', 66.4482069015503]]	2.0	seen	False	True	0.8682069015502947	2.9842798709869385	1.0	14.0	1623865189.4944	False		False	0.0	311.6591999530792	48.0
03	ses-009	16	images_fmri/pastry/pastry_02s.jpg	unseen	5378	449	2	None	1125.0	16018.0	2.0	unseen-between	1	3	70.05	2.98	True	True	70.03771686553955	73.01667904853821	[['x', 72.01496601104736], ['a', 72.48764300346375]]	-1.0	unseen	False	False	1.964966011047366	2.978962182998657	1.0	15.0	1623865193.9622	False		False			
03	ses-009	17	images_fmri/helicopter/helicopter_02s.jpg	seen	3734	312	2	None	776.0	11100.0	2.0	seen-within	2	3	74.52	2.98	True	True	74.5031750202179	77.48823499679565	[['b', 75.37514185905457]]	2.0	seen	False	True	0.8551418590545694	2.985059976577759	1.0	16.0	1623865198.4277	False		False	0.0	22.34720015525818	5.0
03	ses-009	18	images_fmri/kebab/kebab_02n.jpg	unseen	4094	342	2	None	866.0	12381.0	2.0	unseen-between	1	3	78.99	2.98	False	False	78.96805095672607	81.95160698890686	[['b', 80.59581804275513]]	-1.0	unseen	False	False	1.605818042755132	2.983556032180786	1.0	17.0	1623865202.8925	False		False			
03	ses-009	19	images_fmri/cucumber/cucumber_02s.jpg	unseen	2270	190	2	None	458.0	6623.0	2.0	unseen-between	1	3	83.46	2.98	True	True	83.45284104347229	86.42037391662598	[['x', 85.1175639629364]]	-1.0	unseen	False	False	1.6575639629364076	2.9675328731536865	1.0	18.0	1623865207.3773	False		False			
03	ses-009	20	images_fmri/nacho/nacho_02s.jpg	seen	4994	417	2	None	1046.0	14893.0	2.0	seen-within	2	3	87.92999999999998	2.98	True	True	87.91758394241333	90.90390706062315	[['b', 89.08090496063232]]	2.0	seen	False	True	1.1509049606323458	2.986323118209839	1.0	19.0	1623865211.8421	False		False	0.0	634.7170000076294	99.0
03	ses-009	21	images_fmri/coffee_pot/coffee_pot_02s.jpg	unseen	1886	158	2	None	381.0	5485.0	2.0	unseen-between	1	3	92.4	2.98	False	True	92.38404393196106	95.3663649559021	[['y', 93.98267102241516]]	-2.0	unseen	False	True	1.5826710224151554	2.98232102394104	1.0	20.0	1623865216.3085	False		False			
03	ses-009	22	images_fmri/coleslaw/coleslaw_02n.jpg	seen	1922	161	2	None	387.0	5567.0	2.0	seen-within-between	3	3	96.87	2.98	False	True	96.8535978794098	99.83290600776672	[['a', 99.22977590560913]]	1.0	seen	False	False	2.3597759056091263	2.9793081283569336	1.0	21.0	1623865220.7781	False		False	7.0	0.0	170.0
03	ses-009	23	images_fmri/cymbal/cymbal_02s.jpg	seen	2330	195	2	None	469.0	6792.0	2.0	seen-within	2	3	101.34	2.98	True	True	101.32139897346497	104.30497694015504	[['b', 102.18740797042847]]	2.0	seen	False	True	0.8474079704284634	2.9835779666900635	1.0	22.0	1623865225.2459	False		False	0.0	441.2960000038147	77.0
03	ses-009	24	images_fmri/hedgehog/hedgehog_02s.jpg	seen	3722	311	2	None	775.0	11085.0	2.0	seen-between	2	3	105.81	2.98	False	False	105.80026888847352	108.77027893066406	[['x', 107.0933518409729]]	2.0	seen	False	True	1.283351840972898	2.970010042190552	1.0	23.0	1623865229.7248	False		False	7.0	0.0	290.0
03	ses-009	25	images_fmri/mirror/mirror_02s.jpg	seen	4802	401	2	None	1006.0	14333.0	2.0	seen-between	2	3	110.28	2.98	True	False	110.27126693725586	113.2529890537262	[['x', 111.44753384590149]]	2.0	seen	False	True	1.167533845901488	2.981722116470337	1.0	24.0	1623865234.1958	False		False	7.0	0.0	399.0
03	ses-009	26	images_fmri/closet/closet_02s.jpg	seen	1826	153	2	None	361.0	5215.0	2.0	seen-within-between	3	3	114.75	2.98	False	True	114.73786091804504	117.7156219482422	[['x', 116.44953203201294]]	-1.0	unseen	True	False	1.6995320320129397	2.977761030197144	1.0	25.0	1623865238.6624	False		False	7.0	0.0	455.0
03	ses-009	27	images_fmri/scaffolding/scaffolding_02s.jpg	seen	6458	539	2	None	1371.0	19476.0	2.0	seen-between-within	3	3	119.22	2.98	False	True	119.20451307296752	122.18653988838196	[['b', 120.21907806396484]]	2.0	seen	False	True	0.9990780639648448	2.9820268154144287	1.0	26.0	1623865243.1290	False		False	0.0	311.65949988365173	48.0
03	ses-009	28	images_fmri/lego/lego_02s.jpg	seen	4310	360	2	None	914.0	13068.0	2.0	seen-within-between	3	3	123.69	2.98	True	True	123.67095708847046	126.65330696105956	[['b', 124.95778799057007]]	2.0	seen	False	True	1.2677879905700706	2.9823498725891118	1.0	27.0	1623865247.5955	False		False	7.0	0.0	257.0
03	ses-009	29	images_fmri/garlic/garlic_02s.jpg	seen	3182	266	2	None	659.0	9464.0	2.0	seen-within	2	3	128.16	2.98	False	True	128.1497130393982	131.12100505828855	[['b', 129.01279592514038]]	2.0	seen	False	True	0.8527959251403843	2.971292018890381	1.0	28.0	1623865252.0742	False		False	0.0	93.87839984893799	21.0
03	ses-009	30	images_fmri/pliers/pliers_02s.jpg	unseen	5726	478	2	None	1202.0	17078.0	2.0	unseen-within	1	3	132.63	2.98	True	False	132.62073397636414	135.599632024765	[['y', 134.768404006958], ['b', 135.79047083854675]]	1.0	seen	True	False	2.1384040069580124	2.978898048400879	1.0	29.0	1623865256.5452	False		False			
03	ses-009	31	images_fmri/ready_meal/ready_meal_02s.jpg	unseen	6182	516	2	None	1293.0	18396.0	2.0	unseen-within	1	3	137.1	2.98	False	True	137.0821979045868	140.065908908844	[['x', 138.97755098342896], ['y', 139.68707990646362]]	-1.0	unseen	False	False	1.8775509834289608	2.983711004257202	1.0	30.0	1623865261.0067	False		False			
03	ses-009	32	images_fmri/beer/beer_02s.jpg	seen	542	46	2	None	114.0	1736.0	2.0	seen-within	2	3	141.57	2.98	False	False	141.55243301391602	144.53313302993774	[['x', 142.82967686653137]]	2.0	seen	False	True	1.259676866531379	2.9807000160217285	1.0	31.0	1623865265.4769	False		False	0.0	674.9337999820709	108.0
03	ses-009	33	images_fmri/television/television_02n.jpg	seen	7610	635	2	None	1642.0	23177.0	2.0	seen-within-between	3	3	146.04	2.98	True	True	146.02044200897217	149.00130796432495	[['b', 147.35406398773193]]	2.0	seen	False	True	1.3140639877319416	2.980865955352783	1.0	32.0	1623865269.9449	False		False	7.0	0.0	394.0
03	ses-009	34	images_fmri/jack/jack_02s.jpg	unseen	3962	331	2	None	836.0	11950.0	2.0	unseen-between	1	3	150.51	2.98	True	False	150.50138688087463	153.4652910232544	[['b', 152.5079219341278]]	-1.0	unseen	False	False	1.9979219341278167	2.9639041423797607	1.0	33.0	1623865274.4259	False		False			
03	ses-009	35	images_fmri/water_fountain/water_fountain_02s.jpg	seen	8378	699	2	None	1791.0	25235.0	2.0	seen-within-between	3	3	154.98	2.98	True	False	154.96946692466736	157.94909596443176	[['x', 156.48602199554443]]	2.0	seen	False	True	1.5060219955444438	2.9796290397644043	1.0	34.0	1623865278.8940	False		False	7.0	0.0	412.0
03	ses-009	36	images_fmri/ferret/ferret_02s.jpg	seen	2882	241	2	None	579.0	8373.0	2.0	seen-between-within	3	3	159.45	2.98	True	False	159.43663597106934	162.4188380241394	[['x', 160.4810528755188]]	2.0	seen	False	True	1.0310528755188102	2.9822020530700684	1.0	35.0	1623865283.3611	False		False	0.0	147.51289987564087	33.0
03	ses-009	37	images_fmri/refrigerator/refrigerator_02s.jpg	seen	6206	518	2	None	1301.0	18518.0	2.0	seen-between-within	3	3	163.92	2.98	False	True	163.89872288703918	166.88599395751953	[['b', 165.13137197494507]]	2.0	seen	False	True	1.2113719749450809	2.9872710704803467	1.0	36.0	1623865287.8232	False		False	0.0	436.81850004196167	76.0
03	ses-009	38	images_fmri/whale/whale_02s.jpg	seen	8402	701	2	None	1805.0	25426.0	2.0	seen-between	2	3	168.39	2.98	False	False	168.38470602035522	171.3514759540558	[['b', 170.31710696220398]]	-1.0	unseen	True	False	1.9271069622039927	2.966769933700561	1.0	37.0	1623865292.3092	False		False	7.0	0.0	210.0
03	ses-009	39	images_fmri/filing_cabinet/filing_cabinet_02s.jpg	unseen	2918	244	2	None	586.0	8468.0	2.0	unseen-between	1	3	172.86	2.98	True	False	172.8531529903412	175.816969871521	[['y', 175.13993191719055]]	1.0	seen	True	False	2.279931917190538	2.9638168811798096	1.0	38.0	1623865296.7776	False		False			
03	ses-009	40	images_fmri/bracket/bracket_02s.jpg	seen	962	81	2	None	190.0	2878.0	2.0	seen-between	2	3	177.32999999999996	2.98	False	False	177.31887292861938	180.2972249984741	[['x', 178.81685996055603]]	2.0	seen	False	True	1.4868599605560746	2.9783520698547363	1.0	39.0	1623865301.2434	False		False	7.0	0.0	183.0
03	ses-009	41	images_fmri/lightbulb/lightbulb_02s.jpg	unseen	4382	366	2	None	928.0	13250.0	2.0	unseen-between	1	3	181.8	2.98	True	False	181.7869520187378	184.7640450000763	[['b', 183.66502285003662]]	-1.0	unseen	False	False	1.8650228500366095	2.977092981338501	1.0	40.0	1623865305.7114	False		False			
03	ses-009	42	images_fmri/padlock/padlock_02n.jpg	unseen	5234	437	2	None	1096.0	15602.0	2.0	unseen-within	1	3	186.27	2.98	True	True	186.25142407417297	189.2305700778961	[['b', 188.33741784095764]]	2.0	seen	True	True	2.067417840957632	2.9791460037231445	1.0	41.0	1623865310.1759	False		False			
03	ses-009	43	images_fmri/mirror/mirror_02s.jpg	seen	4802	401	2	None	1006.0	14333.0	2.0	seen-between-within	3	3	190.74	2.98	False	False	190.73364996910092	193.7027368545532	[['x', 191.7581570148468]]	2.0	seen	False	True	1.0181570148467929	2.9690868854522705	1.0	42.0	1623865314.6581	False		False	0.0	80.46229982376099	18.0
03	ses-009	44	images_fmri/plate/plate_02s.jpg	seen	5690	475	2	None	1198.0	17026.0	2.0	seen-within	2	3	195.21	2.98	False	False	195.1979808807373	198.184427022934	[['x', 196.26418089866638]]	2.0	seen	False	True	1.054180898666374	2.9864461421966557	1.0	43.0	1623865319.1225	False		False	0.0	472.5848000049591	84.0
03	ses-009	45	images_fmri/canoe/canoe_02s.jpg	unseen	1382	116	2	None	263.0	3862.0	2.0	unseen-within	1	3	199.68	2.98	False	True	199.6686429977417	202.64706802368164	[['y', 201.7229118347168]]	-2.0	unseen	False	True	2.04291183471679	2.9784250259399414	1.0	44.0	1623865323.5931	False		False			
03	ses-009	46	images_fmri/parachute/parachute_02s.jpg	seen	5354	447	2	None	1119.0	15909.0	2.0	seen-within-between	3	3	204.15	2.98	False	True	204.13439202308652	207.11352705955505	[['y', 206.1869659423828]]	-2.0	unseen	True	True	2.036965942382807	2.979135036468506	1.0	45.0	1623865328.0589	False		False	7.0	0.0	253.0
03	ses-009	47	images_fmri/whisk/whisk_02s.jpg	unseen	8462	706	2	None	1812.0	25516.0	2.0	unseen-within	1	3	208.62	2.98	False	False	208.60225796699524	211.5811960697174	[['b', 210.36109805107117], ['y', 211.04655289649963]]	-1.0	unseen	False	False	1.7410980510711624	2.978938102722168	1.0	46.0	1623865332.5268	False		False			
03	ses-009	48	images_fmri/headlamp/headlamp_02s.jpg	unseen	3686	308	2	None	765.0	10953.0	2.0	unseen-between	1	3	213.09	2.98	False	True	213.08364486694336	216.0474150180817	[['x', 214.97818088531494]]	-1.0	unseen	False	False	1.888180885314938	2.9637701511383057	1.0	47.0	1623865337.0081	False		False			
03	ses-009	49	images_fmri/hedgehog/hedgehog_02s.jpg	seen	3722	311	2	None	775.0	11085.0	2.0	seen-between-within	3	3	217.56	2.98	False	False	217.5474660396576	220.5335569381714	[['x', 218.5349578857422]]	2.0	seen	False	True	0.9749578857421852	2.986090898513794	1.0	48.0	1623865341.4720	False		False	0.0	111.74719977378845	25.0
03	ses-009	50	images_fmri/baby/baby_02s.jpg	seen	266	23	2	None	47.0	648.0	2.0	seen-between	2	3	222.03	2.98	False	False	222.01639699935916	224.99642205238345	[['y', 223.84087300300598]]	-2.0	unseen	True	True	1.8108730030059803	2.980025053024292	1.0	49.0	1623865345.9409	False		False	7.0	0.0	270.0
03	ses-009	51	images_fmri/ant/ant_02s.jpg	unseen	122	11	2	None	25.0	345.0	2.0	unseen-between	1	3	226.5	2.98	True	False	226.4837920665741	229.462975025177	[['a', 228.37993788719177]]	-2.0	unseen	False	True	1.8799378871917725	2.9791829586029053	1.0	50.0	1623865350.4083	False		False			
03	ses-009	52	images_fmri/beaker/beaker_02s.jpg	seen	470	40	2	None	102.0	1529.0	2.0	seen-between	2	3	230.97	2.98	False	True	230.95186495780945	233.93318891525269	[['b', 232.94656705856323]]	2.0	seen	False	True	1.9765670585632336	2.9813239574432373	1.0	51.0	1623865354.8764	False		False	7.0	0.0	267.0
03	ses-009	53	images_fmri/whisk/whisk_02s.jpg	seen	8462	706	2	None	1812.0	25516.0	2.0	seen-within	2	3	235.44	2.98	False	True	235.433119058609	238.40190291404724	[['b', 236.287672996521]]	2.0	seen	False	True	0.8476729965209984	2.9687838554382324	1.0	52.0	1623865359.3576	False		False	0.0	26.83080005645752	6.0
03	ses-009	54	images_fmri/jar/jar_02s.jpg	seen	3986	333	2	None	841.0	12021.0	2.0	seen-within-between	3	3	239.91	2.98	True	False	239.89698696136475	242.88275504112244	[['x', 241.15167593955994]]	2.0	seen	False	True	1.24167593955994	2.9857680797576904	1.0	53.0	1623865363.8215	False		False	7.0	0.0	492.0
03	ses-009	55	images_fmri/car/car_02s.jpg	seen	1406	118	2	None	268.0	3941.0	2.0	seen-within-between	3	3	244.38	2.98	True	True	244.3636190891266	247.34591603279117	[['a', 246.17946696281433]]	-2.0	unseen	True	True	1.7994669628143356	2.982296943664551	1.0	54.0	1623865368.2881	False		False	7.0	0.0	499.0
03	ses-009	56	images_fmri/chipmunk/chipmunk_02n.jpg	seen	1730	145	2	None	335.0	4837.0	2.0	seen-between	2	3	248.85	2.98	True	True	248.8345899581909	251.8175549507141	[['b', 250.05882692337036]]	2.0	seen	False	True	1.208826923370367	2.9829649925231934	1.0	55.0	1623865372.7591	False		False	7.0	0.0	414.0
03	ses-009	57	images_fmri/rhubarb/rhubarb_02n.jpg	unseen	6254	522	2	None	1308.0	18619.0	2.0	unseen-between	1	3	253.32	2.98	True	False	253.2965269088745	256.2833080291748	[['x', 254.6587839126587]]	2.0	seen	True	True	1.3387839126586982	2.986781120300293	1.0	56.0	1623865377.2210	False		False			
03	ses-009	58	images_fmri/groundhog/groundhog_02s.jpg	seen	3482	291	2	None	719.0	10300.0	2.0	seen-between-within	3	3	257.79	2.98	False	False	257.7843198776245	260.7511320114136	[['x', 258.86963295936584]]	2.0	seen	False	True	1.0796329593658245	2.9668121337890625	1.0	57.0	1623865381.7088	False		False	0.0	254.80030012130737	57.0
03	ses-009	59	images_fmri/canoe/canoe_02s.jpg	seen	1382	116	2	None	263.0	3862.0	2.0	seen-within	2	3	262.26	2.98	True	False	262.2484018802643	265.2317268848419	[['x', 263.2144019603729]]	2.0	seen	False	True	0.954401960372934	2.9833250045776367	1.0	58.0	1623865386.1729	False		False	0.0	62.57979989051819	14.0
03	ses-009	60	images_fmri/airbag/airbag_02s.jpg	seen	14	2	2	None	8.0	99.0	2.0	seen-between-within	3	3	266.73	2.98	True	True	266.7162489891052	269.6951050758362	[['b', 268.0198140144348]]	2.0	seen	False	True	1.2898140144347965	2.978856086730957	1.0	59.0	1623865390.6407	False		False	0.0	441.2926001548767	77.0
