subject	session	TrialNumber	image_path	condition	image_nr	category_nr	exemplar_nr	test_image_nr	things_category_nr	things_image_nr	things_exemplar_nr	subcondition	repetition	run	onset	duration	response_mapping_flip_h	response_mapping_flip_v	onset_flip	offset_flip	keypresses	response	response_txt	error	response_confidence	response_time	duration_flip	ran	order	session_trial_time	atypical	atypical_log	exclude_session	delay_days	delay_seconds	trials_since_lastrep
02	ses-034	1	images_fmri/petal/petal_02s.jpg	seen	5510	460	2	None	1159.0	16487.0	2.0	seen-within-between	3	1	3.0	2.98	True	False	2.9997590840000043	5.966275824000007	[['x', 4.8075439060000065]]	2.0	seen	False	True	1.8075439060000065	2.966516740000003	1.0	0.0	159.7009	False		False	7.0	0.0	270.0
02	ses-034	2	images_fmri/croissant/croissant_02s.jpg	unseen	2198	184	2	None	443.0	6407.0	2.0	unseen-within	1	1	7.47	2.98	True	False	7.466622408999996	10.451017825000008	[['b', 9.780407313000012]]	-1.0	unseen	False	False	2.310407313000012	2.9843954160000123	1.0	1.0	164.1678	False		False			
02	ses-034	3	images_fmri/footprint/footprint_02s.jpg	seen	3086	258	2	None	633.0	9129.0	2.0	seen-within-between	3	1	11.94	2.98	False	False	11.935294852999988	14.922471895	[['a', 13.140606343999991]]	1.0	seen	False	False	1.2006063439999917	2.987177042000013	1.0	2.0	168.6364	False		False	7.0	0.0	159.0
02	ses-034	4	images_fmri/footrest/footrest_02s.jpg	unseen	3098	259	2	None	634.0	9144.0	2.0	unseen-between	1	1	16.41	2.98	False	False	16.406543605999985	19.38576137300001	[['b', 18.077616167000002]]	-1.0	unseen	False	False	1.667616167000002	2.979217767000023	1.0	3.0	173.1077	False		False			
02	ses-034	5	images_fmri/raspberry/raspberry_02n.jpg	unseen	6134	512	2	None	1285.0	18290.0	2.0	unseen-within	1	1	20.88	2.98	True	False	20.87092270400001	23.852055804999992	[['y', 22.451013499]]	1.0	seen	True	False	1.571013498999999	2.9811331009999837	1.0	4.0	177.5721	False		False			
02	ses-034	6	images_fmri/zebra/zebra_02s.jpg	seen	8618	719	2	None	1852.0	26064.0	2.0	seen-within-between	3	1	25.35	2.98	False	True	25.35225305099999	28.317905728	[['a', 26.533415958000006]]	1.0	seen	False	False	1.1834159580000048	2.9656526770000085	1.0	5.0	182.0534	False		False	7.0	0.0	206.0
02	ses-034	7	images_fmri/retainer/retainer_02s.jpg	unseen	6218	519	2	None	1304.0	18563.0	2.0	unseen-within	1	1	29.82	2.98	False	True	29.82407365399999	32.80249894900001	[['a', 31.340588075]]	1.0	seen	True	False	1.5205880749999992	2.9784252950000223	1.0	6.0	186.5252	False		False			
02	ses-034	8	images_fmri/mousetrap/mousetrap_02s.jpg	seen	4946	413	2	None	1030.0	14680.0	2.0	seen-between	2	1	34.29	2.98	True	True	34.287608941	37.26777550899999	[['y', 36.59455984099999]]	1.0	seen	False	False	2.304559840999993	2.980166567999987	1.0	7.0	190.9887	False		False	7.0	0.0	60.0
02	ses-034	9	images_fmri/ring/ring_02s.jpg	seen	6302	526	2	None	1314.0	18698.0	2.0	seen-between	2	1	38.76	2.98	True	False	38.75612472899999	41.734265814	[['b', 40.319819950000024]]	-1.0	unseen	True	False	1.5598199500000265	2.9781410850000043	1.0	8.0	195.4573	False		False	7.0	0.0	283.0
02	ses-034	10	images_fmri/dress/dress_02s.jpg	seen	2594	217	2	None	519.0	7528.0	2.0	seen-between	2	1	43.23	2.98	False	False	43.22164220100001	46.200894189	[['a', 44.954664456]]	1.0	seen	False	False	1.7246644560000064	2.9792519879999877	1.0	9.0	199.9228	False		False	7.0	0.0	41.0
02	ses-034	11	images_fmri/pizza/pizza_02s.jpg	seen	5666	473	2	None	1193.0	16961.0	2.0	seen-within-between	3	1	47.7	2.98	True	False	47.703727329	50.67130133999999	[['x', 49.148769228000006]]	2.0	seen	False	True	1.4487692280000033	2.967574010999982	1.0	10.0	204.4049	False		False	7.0	0.0	118.0
02	ses-034	12	images_fmri/submarine/submarine_02s.jpg	seen	7310	610	2	None	1578.0	22281.0	2.0	seen-within-between	3	1	52.17	2.98	True	False	52.172643281000006	55.15455957699999	[['x', 53.26184550000001]]	2.0	seen	False	True	1.0918455000000051	2.98191629599998	1.0	11.0	208.8738	False		False	7.0	0.0	345.0
02	ses-034	13	images_fmri/altar/altar_02s.jpg	unseen	74	7	2	None	17.0	233.0	2.0	unseen-within	1	1	56.64	2.98	False	False	56.63814959999999	59.617252262	[['a', 59.165655984000026]]	1.0	seen	True	False	2.525655984000025	2.9791026620000025	1.0	12.0	213.3393	False		False			
02	ses-034	14	images_fmri/punch1/punch1_02s.jpg	seen	6014	502	2	None	1255.0	17875.0	2.0	seen-between	2	1	61.11	2.98	True	False	61.105767265	64.083809059	[['y', 62.533626041999995]]	1.0	seen	False	False	1.423626041999995	2.9780417940000063	1.0	13.0	217.8069	False		False	7.0	0.0	320.0
02	ses-034	15	images_fmri/quill/quill_02s.jpg	unseen	6038	504	2	None	1264.0	18010.0	2.0	unseen-within	1	1	65.58	2.98	True	True	65.571950249	68.55037446099999	[['x', 68.04251949499998]]	-1.0	unseen	False	False	2.462519494999981	2.978424211999993	1.0	14.0	222.2731	False		False			
02	ses-034	16	images_fmri/cassette/cassette_02s.jpg	unseen	1466	123	2	None	284.0	4151.0	2.0	unseen-between	1	1	70.05	2.98	True	False	70.05569993099999	73.020655449	[['y', 72.62868699899998]]	1.0	seen	True	False	2.5786869989999843	2.9649555180000107	1.0	15.0	226.7568	False		False			
02	ses-034	17	images_fmri/iguana/iguana_02s.jpg	seen	3926	328	2	None	826.0	11803.0	2.0	seen-between	2	1	74.52	2.98	False	True	74.52113417999999	77.50250330399999	[['a', 76.06031471799999]]	1.0	seen	False	False	1.5403147179999903	2.981369123999997	1.0	16.0	231.2223	False		False	7.0	0.0	140.0
02	ses-034	18	images_fmri/lime/lime_02s.jpg	seen	4394	367	2	None	931.0	13292.0	2.0	seen-between	2	1	78.99	2.98	False	True	78.988830328	81.97226245600001	[['x', 80.16139192499999]]	-1.0	unseen	True	False	1.171391924999995	2.983432128000004	1.0	17.0	235.6900	False		False	7.0	0.0	55.0
02	ses-034	19	images_fmri/scissors/scissors_02s.jpg	seen	6506	543	2	None	1380.0	19596.0	2.0	seen-within-between	3	1	83.46	2.98	False	True	83.45242180700001	86.43324000300001	[['x', 85.64736059399998]]	-1.0	unseen	True	False	2.1873605939999834	2.9808181960000013	1.0	18.0	240.1536	False		False	7.0	0.0	101.0
02	ses-034	20	images_fmri/camel/camel_02s.jpg	unseen	1274	107	2	None	246.0	3640.0	2.0	unseen-between	1	1	87.92999999999998	2.98	True	True	87.93689163900001	90.900071182	[['x', 89.18643591399997]]	-1.0	unseen	False	False	1.2564359139999937	2.9631795429999954	1.0	19.0	244.6380	False		False			
02	ses-034	21	images_fmri/raspberry/raspberry_02n.jpg	seen	6134	512	2	None	1285.0	18290.0	2.0	seen-within	2	1	92.4	2.98	True	True	92.400673668	95.370856032	[['b', 93.25217046299998]]	2.0	seen	False	True	0.8521704629999789	2.97018236400001	1.0	20.0	249.1018	False		False	0.0	71.52969999999999	16.0
02	ses-034	22	images_fmri/iguana/iguana_02s.jpg	seen	3926	328	2	None	826.0	11803.0	2.0	seen-between-within	3	1	96.87	2.98	False	True	96.870374887	99.850732762	[['b', 97.71724261599998]]	2.0	seen	False	True	0.8472426159999742	2.98035787500001	1.0	21.0	253.5715	False		False	0.0	22.349199999999996	5.0
02	ses-034	23	images_fmri/match/match_02s.jpg	unseen	4694	392	2	None	984.0	14021.0	2.0	unseen-within	1	1	101.34	2.98	False	False	101.33372679399996	104.315998585	[['a', 102.80103317800003]]	1.0	seen	True	False	1.4610331780000223	2.9822717910000165	1.0	22.0	258.0349	False		False			
02	ses-034	24	images_fmri/mango/mango_02s.jpg	seen	4598	384	2	None	967.0	13775.0	2.0	seen-between	2	1	105.81	2.98	True	False	105.804463313	108.78268624999998	[['y', 107.22594197299999]]	1.0	seen	False	False	1.4159419729999885	2.978222936999998	1.0	23.0	262.5056	False		False	7.0	0.0	311.0
02	ses-034	25	images_fmri/bench/bench_02s.jpg	unseen	590	50	2	None	121.0	1844.0	2.0	unseen-within	1	1	110.28	2.98	False	True	110.28613566500002	113.25052618299998	[['x', 111.48114240600002]]	-1.0	unseen	False	False	1.2011424060000166	2.9643905179999592	1.0	24.0	266.9873	False		False			
02	ses-034	26	images_fmri/space_shuttle/space_shuttle_02s.jpg	unseen	7010	585	2	None	1502.0	21247.0	2.0	unseen-between	1	1	114.75	2.98	True	False	114.754293479	117.733261874	[['b', 117.332079793]]	-1.0	unseen	False	False	2.582079793000005	2.978968394999981	1.0	25.0	271.4554	False		False			
02	ses-034	27	images_fmri/nail_polish/nail_polish_02s.jpg	seen	5006	418	2	None	1050.0	14948.0	2.0	seen-within-between	3	1	119.22	2.98	True	True	119.220783487	122.198745352	[['y', 120.41194008999999]]	1.0	seen	False	False	1.1919400899999886	2.977961864999997	1.0	26.0	275.9219	False		False	7.0	0.0	116.0
02	ses-034	28	images_fmri/quill/quill_02s.jpg	seen	6038	504	2	None	1264.0	18010.0	2.0	seen-within	2	1	123.69	2.98	True	True	123.683293237	126.667909147	[['b', 124.53176741]]	2.0	seen	False	True	0.8417674100000028	2.9846159100000023	1.0	27.0	280.3844	False		False	0.0	58.11130000000003	13.0
02	ses-034	29	images_fmri/penguin/penguin_02s.jpg	seen	5486	458	2	None	1146.0	16295.0	2.0	seen-within-between	3	1	128.16	2.98	False	True	128.153233719	131.132297251	[['a', 129.390866191]]	1.0	seen	False	False	1.2308661909999898	2.979063531999998	1.0	28.0	284.8544	False		False	7.0	0.0	186.0
02	ses-034	30	images_fmri/knife/knife_02s.jpg	seen	4154	347	2	None	880.0	12592.0	2.0	seen-between	2	1	132.63	2.98	False	False	132.634950211	135.5986254	[['a', 134.01064862200002]]	1.0	seen	False	False	1.3806486220000238	2.963675189000014	1.0	29.0	289.3361	False		False	7.0	0.0	113.0
02	ses-034	31	images_fmri/microphone/microphone_02n.jpg	seen	4754	397	2	None	999.0	14220.0	2.0	seen-between	2	1	137.1	2.98	False	True	137.10245394100002	140.08279558200002	[['a', 138.317762189]]	1.0	seen	False	False	1.2177621890000123	2.9803416409999954	1.0	30.0	293.8036	False		False	7.0	0.0	387.0
02	ses-034	32	images_fmri/thumbtack/thumbtack_02s.jpg	seen	7682	641	2	None	1655.0	23364.0	2.0	seen-within-between	3	1	141.57	2.98	True	True	141.566517158	144.55209123499998	[['y', 142.769570102]]	1.0	seen	False	False	1.1995701019999956	2.985574076999967	1.0	31.0	298.2677	False		False	7.0	0.0	250.0
02	ses-034	33	images_fmri/blazer/blazer_02s.jpg	unseen	710	60	2	None	138.0	2101.0	2.0	unseen-within	1	1	146.04	2.98	False	True	146.03497935899998	149.01590625799997	[['x', 147.170372439]]	-1.0	unseen	False	False	1.1303724390000127	2.9809268989999964	1.0	32.0	302.7361	False		False			
02	ses-034	34	images_fmri/guillotine/guillotine_02s.jpg	seen	3518	294	2	None	722.0	10355.0	2.0	seen-within-between	3	1	150.51	2.98	False	True	150.501126485	153.482420559	[['b', 151.575527976]]	2.0	seen	False	True	1.0655279759999985	2.9812940740000045	1.0	33.0	307.2023	False		False	7.0	0.0	115.0
02	ses-034	35	images_fmri/tongs/tongs_02s.jpg	seen	7802	651	2	None	1675.0	23643.0	2.0	seen-between	2	1	154.98	2.98	True	False	154.98212244299998	157.947797396	[['y', 157.049766045]]	1.0	seen	False	False	2.069766045000023	2.9656749530000184	1.0	34.0	311.6833	False		False	7.0	0.0	92.0
02	ses-034	36	images_fmri/binoculars/binoculars_02s.jpg	unseen	626	53	2	None	128.0	1960.0	2.0	unseen-within	1	1	159.45	2.98	True	True	159.45359136500002	162.431967078	[['x', 161.44565767699999]]	-1.0	unseen	False	False	1.995657676999997	2.9783757129999917	1.0	35.0	316.1547	False		False			
02	ses-034	37	images_fmri/pom-pom/pom-pom_02s.jpg	unseen	5798	484	2	None	1219.0	17342.0	2.0	unseen-within	1	1	163.92	2.98	True	False	163.915358211	166.897729787	[['y', 165.337536458]]	1.0	seen	True	False	1.4175364580000007	2.982371575999992	1.0	36.0	320.6165	False		False			
02	ses-034	38	images_fmri/beaker/beaker_02s.jpg	unseen	470	40	2	None	102.0	1529.0	2.0	unseen-within	1	1	168.39	2.98	False	False	168.38602764799998	171.36428842200002	[['b', 170.00650688399998]]	-1.0	unseen	False	False	1.616506883999989	2.9782607740000344	1.0	37.0	325.0872	False		False			
02	ses-034	39	images_fmri/pom-pom/pom-pom_02s.jpg	seen	5798	484	2	None	1219.0	17342.0	2.0	seen-within	2	1	172.86	2.98	True	False	172.85269856999997	175.830596528	[['x', 174.97053941399997]]	2.0	seen	False	True	2.110539413999959	2.977897958000028	1.0	38.0	329.5538	False		False	0.0	8.93730000000005	2.0
02	ses-034	40	images_fmri/jam/jam_02s.jpg	seen	3974	332	2	None	840.0	12006.0	2.0	seen-within-between	3	1	177.32999999999996	2.98	False	False	177.331764476	180.300000965	[['a', 180.34216365999998]]	1.0	seen	False	False	3.012163660000027	2.968236488999992	1.0	39.0	334.0329	False		False	7.0	0.0	124.0
02	ses-034	41	images_fmri/tattoo/tattoo_02s.jpg	seen	7574	632	2	None	1630.0	23012.0	2.0	seen-within-between	3	1	181.8	2.98	False	False	181.798014966	184.784859256	[['x', 182.987221073]]	2.0	seen	False	True	1.1872210729999892	2.986844290000022	1.0	40.0	338.4992	False		False	7.0	0.0	305.0
02	ses-034	42	images_fmri/match/match_02s.jpg	seen	4694	392	2	None	984.0	14021.0	2.0	seen-within	2	1	186.27	2.98	False	False	186.268352758	189.250594937	[['x', 187.462109705]]	2.0	seen	False	True	1.1921097049999787	2.982242179000025	1.0	41.0	342.9695	False		False	0.0	84.93459999999999	19.0
02	ses-034	43	images_fmri/punch1/punch1_02s.jpg	seen	6014	502	2	None	1255.0	17875.0	2.0	seen-between-within	3	1	190.74	2.98	False	False	190.735450017	193.718231013	[['x', 191.82371213200003]]	2.0	seen	False	True	1.0837121320000165	2.982780995999974	1.0	42.0	347.4366	False		False	0.0	129.62969999999999	29.0
02	ses-034	44	images_fmri/drill/drill_02s.jpg	seen	2618	219	2	None	521.0	7560.0	2.0	seen-between	2	1	195.21	2.98	False	True	195.19757749	198.18022132	[['b', 196.56737176899998]]	2.0	seen	False	True	1.3573717689999685	2.982643829999972	1.0	43.0	351.8987	False		False	7.0	0.0	118.0
02	ses-034	45	images_fmri/croissant/croissant_02s.jpg	seen	2198	184	2	None	443.0	6407.0	2.0	seen-within	2	1	199.68	2.98	True	False	199.683710466	202.652524461	[['x', 200.553294009]]	2.0	seen	False	True	0.8732940090000056	2.968813995000005	1.0	44.0	356.3849	False		False	0.0	192.21710000000002	43.0
02	ses-034	46	images_fmri/oatmeal/oatmeal_02s.jpg	unseen	5114	427	2	None	1070.0	15209.0	2.0	unseen-between	1	1	204.15	2.98	True	True	204.147806898	207.130844056	[['a', 206.20448510300002]]	-2.0	unseen	False	True	2.054485103000019	2.983037158000002	1.0	45.0	360.8489	False		False			
02	ses-034	47	images_fmri/beaker/beaker_02s.jpg	seen	470	40	2	None	102.0	1529.0	2.0	seen-within	2	1	208.62	2.98	True	True	208.614243838	211.597534401	[['b', 209.54008783799998]]	2.0	seen	False	True	0.9200878379999722	2.983290563000025	1.0	46.0	365.3154	False		False	0.0	40.228200000000015	9.0
02	ses-034	48	images_fmri/parachute/parachute_02s.jpg	seen	5354	447	2	None	1119.0	15909.0	2.0	seen-between	2	1	213.09	2.98	False	True	213.083812487	216.063299486	[['a', 214.713005038]]	1.0	seen	False	False	1.6230050380000025	2.979486999000017	1.0	47.0	369.7850	False		False	7.0	0.0	56.0
02	ses-034	49	images_fmri/umbrella/umbrella_02s.jpg	seen	8114	677	2	None	1744.0	24578.0	2.0	seen-within-between	3	1	217.56	2.98	True	False	217.565964642	220.529542402	[['x', 219.30995963100003]]	2.0	seen	False	True	1.7499596310000245	2.963577760000021	1.0	48.0	374.2671	False		False	7.0	0.0	307.0
02	ses-034	50	images_fmri/ribbon/ribbon_02s.jpg	seen	6266	523	2	None	1309.0	18632.0	2.0	seen-between	2	1	222.03	2.98	True	True	222.030560524	225.016899588	[['x', 223.204323403]]	-1.0	unseen	True	False	1.1743234029999885	2.986339063999992	1.0	49.0	378.7317	False		False	7.0	0.0	233.0
02	ses-034	51	images_fmri/cellphone/cellphone_02s.jpg	unseen	1526	128	2	None	294.0	4287.0	2.0	unseen-between	1	1	226.5	2.98	False	True	226.497076972	229.479490977	[['x', 227.84112503199998]]	-1.0	unseen	False	False	1.3411250319999797	2.9824140050000096	1.0	50.0	383.1982	False		False			
02	ses-034	52	images_fmri/tongs/tongs_02s.jpg	seen	7802	651	2	None	1675.0	23643.0	2.0	seen-between-within	3	1	230.97	2.98	False	False	230.96825075	233.951548985	[['x', 231.98626689399998]]	2.0	seen	False	True	1.0162668939999833	2.9832982350000066	1.0	51.0	387.6694	False		False	0.0	75.98610000000002	17.0
02	ses-034	53	images_fmri/mango/mango_02s.jpg	seen	4598	384	2	None	967.0	13775.0	2.0	seen-between-within	3	1	235.44	2.98	True	True	235.433908195	238.41541814	[['b', 236.351213734]]	2.0	seen	False	True	0.9112137340000004	2.9815099449999707	1.0	52.0	392.1350	False		False	0.0	129.62939999999998	29.0
02	ses-034	54	images_fmri/blimp/blimp_02n.jpg	unseen	734	62	2	None	140.0	2130.0	2.0	unseen-within	1	1	239.91	2.98	False	False	239.916308	242.880149491	[['a', 241.292920605]]	1.0	seen	True	False	1.3829206050000096	2.9638414909999824	1.0	53.0	396.6174	False		False			
02	ses-034	55	images_fmri/firetruck/firetruck_02s.jpg	unseen	2942	246	2	None	597.0	8627.0	2.0	unseen-within	1	1	244.38	2.98	True	True	244.38267464	247.363413666	[['b', 246.10859924599998]]	2.0	seen	True	True	1.7285992459999877	2.9807390259999806	1.0	54.0	401.0838	False		False			
02	ses-034	56	images_fmri/crib/crib_02s.jpg	unseen	2186	183	2	None	442.0	6390.0	2.0	unseen-within	1	1	248.85	2.98	True	True	248.847215861	251.829635116	[['x', 250.894538156]]	-1.0	unseen	False	False	2.044538156000016	2.982419255000025	1.0	55.0	405.5484	False		False			
02	ses-034	57	images_fmri/paintbrush/paintbrush_02s.jpg	seen	5258	439	2	None	1098.0	15629.0	2.0	seen-within-between	3	1	253.32	2.98	False	True	253.313205347	256.300804226	[['x', 254.46018759499998]]	-1.0	unseen	True	False	1.1401875949999862	2.987598879000018	1.0	56.0	410.0143	False		False	7.0	0.0	77.0
02	ses-034	58	images_fmri/lime/lime_02s.jpg	seen	4394	367	2	None	931.0	13292.0	2.0	seen-between-within	3	1	257.79	2.98	False	True	257.783326138	260.767991945	[['b', 258.608241176]]	2.0	seen	False	True	0.8182411759999582	2.984665806999999	1.0	57.0	414.4845	False		False	0.0	178.79450000000003	40.0
02	ses-034	59	images_fmri/coat_rack/coat_rack_02s.jpg	seen	1850	155	2	None	371.0	5349.0	2.0	seen-between	2	1	262.26	2.98	True	False	262.264305919	265.233211424	[['x', 263.287932505]]	2.0	seen	False	True	1.027932505000024	2.9689055050000093	1.0	58.0	418.9654	False		False	7.0	0.0	398.0
02	ses-034	60	images_fmri/coat_rack/coat_rack_02s.jpg	seen	1850	155	2	None	371.0	5349.0	2.0	seen-between-within	3	1	266.73	2.98	False	False	266.731527659	269.71482929	[['x', 267.436091122]]	2.0	seen	False	True	0.7060911219999753	2.9833016310000176	1.0	59.0	423.4327	False		False	0.0	4.467300000000023	1.0
