subject	session	TrialNumber	image_path	condition	image_nr	category_nr	exemplar_nr	test_image_nr	things_category_nr	things_image_nr	things_exemplar_nr	subcondition	repetition	run	onset	duration	response_mapping_flip_h	response_mapping_flip_v	onset_flip	offset_flip	keypresses	response	response_txt	error	response_confidence	response_time	duration_flip	ran	order	session_trial_time	atypical	atypical_log	exclude_session	delay_days	delay_seconds	trials_since_lastrep
3	ses-026	1	images_fmri/towel_rack/towel_rack_05s.jpg	unseen	7901	659	5	None	1694.0	23902.0	5.0	unseen-within	1	4	3.0	2.98	True	False	2.9992026688996702	5.98167326184921	[['a', 4.371060310862958]]	-2.0	unseen	False	True	1.3710603108629584	2.9824705929495394	1.0	0.0	1967189.388	False		True			
3	ses-026	2	images_fmri/chipmunk/chipmunk_05s.jpg	unseen	1733	145	5	None	335.0	4840.0	5.0	unseen-within	1	4	7.47	2.98	False	True	7.467031090054661	10.449105483014137	[['y', 8.544875900028273]]	-2.0	unseen	False	True	1.0748759000282735	2.9820743929594755	1.0	1.0	1967193.8558	False		True			
3	ses-026	3	images_fmri/toast/toast_05s.jpg	seen	7745	646	5	None	1666.0	23517.0	5.0	seen-within-between-within-between	5	4	11.94	2.98	True	False	11.93260618695058	14.91467879898846	[['x', 13.439802248030901]]	2.0	seen	False	True	1.4998022480309017	2.982072612037882	1.0	2.0	1967198.3214	True	_subcondition:seen-within-between-within-between_repetition:5	True	7.0	0.0	409.0
3	ses-026	4	images_fmri/windowsill/windowsill_05s.jpg	unseen	8489	708	5	None	1820.0	25624.0	5.0	unseen-within	1	4	16.41	2.98	False	False	16.39959446201101	19.38307124585845	[['y', 17.460845202906057]]	-2.0	unseen	False	True	1.050845202906057	2.9834767838474363	1.0	3.0	1967202.7884	False		True			
3	ses-026	5	images_fmri/peanut/peanut_05s.jpg	unseen	5417	452	5	None	1132.0	16118.0	5.0	unseen-within	1	4	20.88	2.98	False	True	20.8829693000298	23.84960629697889	[['y', 21.73119833902456]]	-2.0	unseen	False	True	0.8511983390245597	2.966636996949092	1.0	4.0	1967207.2717	False		True			
3	ses-026	6	images_fmri/asparagus/asparagus_05n.jpg	unseen	233	20	5	None	43.0	596.0	5.0	unseen-within	1	4	25.35	2.98	True	True	25.34936222294345	28.33296022494324	[['a', 26.53181690792553]]	-2.0	unseen	False	True	1.1818169079255298	2.9835980019997805	1.0	5.0	1967211.7381	False		True			
3	ses-026	7	images_fmri/lantern/lantern_05s.jpg	seen	4241	354	5	None	896.0	12827.0	5.0	seen-between-between-within	4	4	29.82	2.98	True	False	29.819399890955538	32.80225037387572	[['x', 30.730925641022623]]	2.0	seen	False	True	0.9109256410226224	2.9828504829201847	1.0	6.0	1967216.2082	True	_subcondition:seen-between-between-within_repetition:4	True	0.0	1051.9775000000373	171.0
3	ses-026	8	images_fmri/touchpad/touchpad_05s.jpg	seen	7877	657	5	None	1692.0	23874.0	5.0	seen-within	2	4	34.29	2.98	False	True	34.28694067685865	37.269300628919154	[['b', 35.16885903500952]]	2.0	seen	False	True	0.8788590350095191	2.9823599520605057	1.0	7.0	1967220.6757	False		True	0.0	368.2613999999594	63.0
3	ses-026	9	images_fmri/kale/kale_05s.jpg	seen	4061	339	5	None	861.0	12310.0	5.0	seen-within-between-within-between	5	4	38.76	2.98	False	True	38.75369342602789	41.73809861694463	[['b', 39.94883482600562]]	2.0	seen	False	True	1.1888348260056247	2.984405190916732	1.0	8.0	1967225.1425	True	_subcondition:seen-within-between-within-between_repetition:5	True	7.0	0.0	372.0
3	ses-026	10	images_fmri/peanut/peanut_05s.jpg	seen	5417	452	5	None	1132.0	16118.0	5.0	seen-within	2	4	43.23	2.98	True	False	43.23272463586181	46.203703567851335	[['x', 44.129543671850115]]	2.0	seen	False	True	0.8995436718501182	2.970978931989521	1.0	9.0	1967229.6215	False		True	0.0	22.349799999967217	5.0
3	ses-026	11	images_fmri/key/key_05s.jpg	seen	4121	344	5	None	870.0	12445.0	5.0	seen-between-between	3	4	47.7	2.98	True	True	47.70244304393418	50.68554623797536	[['a', 48.885444822954014]]	-2.0	unseen	True	True	1.185444822954011	2.9831031940411776	1.0	10.0	1967234.0912	True	_subcondition:seen-between-between_repetition:3	True	7.0	0.0	193.0
3	ses-026	12	images_fmri/towel_rack/towel_rack_05s.jpg	seen	7901	659	5	None	1694.0	23902.0	5.0	seen-within	2	4	52.17	2.98	True	True	52.16695051989518	55.15182325686328	[['b', 53.00846316688694]]	2.0	seen	False	True	0.8384631668869389	2.9848727369681	1.0	11.0	1967238.5557	False		True	0.0	49.16769999987446	11.0
3	ses-026	13	images_fmri/dough/dough_05s.jpg	unseen	2549	213	5	None	514.0	7450.0	5.0	unseen-between	1	4	56.64	2.98	True	False	56.63602736592293	59.61495495005511	[['a', 58.29861558089033], ['b', 58.88336716988124]]	-2.0	unseen	False	True	1.6586155808903271	2.97892758413218	1.0	12.0	1967243.0248	False		True			
3	ses-026	14	images_fmri/powder/powder_05s.jpg	unseen	5921	494	5	None	1237.0	17594.0	5.0	unseen-between	1	4	61.11	2.98	False	False	61.10347634297796	64.08210329897702	[['y', 62.247740752995014]]	-2.0	unseen	False	True	1.1377407529950148	2.978626955999061	1.0	13.0	1967247.4923	False		True			
3	ses-026	15	images_fmri/brownie/brownie_05s.jpg	seen	1037	87	5	None	205.0	3090.0	5.0	seen-within-between-within-between	5	4	65.58	2.98	True	False	65.58514750702307	68.5479343298357	[['a', 67.7614025210496]]	-2.0	unseen	True	True	2.181402521049605	2.962786822812632	1.0	14.0	1967251.9739	True	_subcondition:seen-within-between-within-between_repetition:5	True	7.0	0.0	493.0
3	ses-026	16	images_fmri/scoreboard/scoreboard_05s.jpg	seen	6533	545	5	None	1384.0	19655.0	5.0	seen-between-between	3	4	70.05	2.98	False	False	70.05342470994219	73.03279741900042	[['b', 72.22451532492414]]	-1.0	unseen	True	False	2.174515324924144	2.979372709058225	1.0	15.0	1967256.4422	True	_subcondition:seen-between-between_repetition:3	True	7.0	0.0	351.0
3	ses-026	17	images_fmri/fern/fern_05s.jpg	seen	2873	240	5	None	578.0	8364.0	5.0	seen-between-between	3	4	74.52	2.98	False	False	74.51943253795616	77.498659607023	[['a', 76.56411797599867]]	1.0	seen	False	False	2.044117975998674	2.979227069066837	1.0	16.0	1967260.9082	True	_subcondition:seen-between-between_repetition:3	True	7.0	0.0	203.0
3	ses-026	18	images_fmri/cinnamon/cinnamon_05s.jpg	seen	1769	148	5	None	349.0	5051.0	5.0	seen-between-between	3	4	78.99	2.98	True	False	78.9849301208742	81.96515278797597	[['a', 80.06259933486581], ['y', 81.75367478886619]]	-2.0	unseen	True	True	1.0725993348658136	2.98022266710177	1.0	17.0	1967265.3737	True	_subcondition:seen-between-between_repetition:3	True	7.0	0.0	265.0
3	ses-026	19	images_fmri/bracelet2/bracelet2_05s.jpg	unseen	953	80	5	None	189.0	2864.0	5.0	unseen-within	1	4	83.46	2.98	True	False	83.44734704005532	86.43135976884514	[['b', 85.09052518499084]]	-1.0	unseen	False	False	1.6305251849908444	2.9840127287898213	1.0	18.0	1967269.8361	False		True			
3	ses-026	20	images_fmri/scaffolding/scaffolding_05s.jpg	unseen	6461	539	5	None	1371.0	19479.0	5.0	unseen-within	1	4	87.92999999999998	2.98	True	True	87.93458670005202	90.89774492103606	[['x', 90.12751472904347], ['a', 91.39237528690137]]	-1.0	unseen	False	False	2.1975147290434904	2.9631582209840417	1.0	19.0	1967274.3234	False		True			
3	ses-026	21	images_fmri/grapefruit/grapefruit_05s.jpg	seen	3401	284	5	None	704.0	10092.0	5.0	seen-within-between-within-between	5	4	92.4	2.98	False	True	92.39775923499838	95.38216714700684	[['y', 94.09978475491516]]	-2.0	unseen	True	True	1.6997847549151572	2.9844079120084643	1.0	20.0	1967278.7865	True	_subcondition:seen-within-between-within-between_repetition:5	True	7.0	0.0	232.0
3	ses-026	22	images_fmri/mouse1/mouse1_05s.jpg	seen	4937	412	5	None	1027.0	14636.0	5.0	seen-within-between-within-between	5	4	96.87	2.98	True	True	96.86828989489004	99.84791148896328	[['y', 98.73981448705308]]	1.0	seen	False	False	1.8698144870530768	2.979621594073251	1.0	21.0	1967283.2571	True	_subcondition:seen-within-between-within-between_repetition:5	True	7.0	0.0	300.0
3	ses-026	23	images_fmri/skunk/skunk_05s.jpg	seen	6821	569	5	None	1460.0	20698.0	5.0	seen-between-between	3	4	101.34	2.98	True	False	101.33556061796844	104.31581855285911	[['b', 103.34508385695517], ['a', 103.73994579096325]]	-1.0	unseen	True	False	2.005083856955167	2.9802579348906875	1.0	22.0	1967287.7243	True	_subcondition:seen-between-between_repetition:3	True	7.0	0.0	379.0
3	ses-026	24	images_fmri/gargoyle/gargoyle_05s.jpg	seen	3173	265	5	None	658.0	9450.0	5.0	seen-between-between	3	4	105.81	2.98	True	False	105.80251967790537	108.7814275850542	[['b', 107.56021904805675], ['y', 108.4760212090332]]	-1.0	unseen	True	False	1.7502190480567492	2.978907907148823	1.0	23.0	1967292.1913	True	_subcondition:seen-between-between_repetition:3	True	7.0	0.0	325.0
3	ses-026	25	images_fmri/saddle/saddle_05s.jpg	unseen	6413	535	5	None	1344.0	19112.0	5.0	unseen-between	1	4	110.28	2.98	False	True	110.28204257204196	113.2477249240037	[['y', 111.68816243484616]]	-2.0	unseen	False	True	1.4081624348461617	2.965682351961732	1.0	24.0	1967296.6708	False		True			
3	ses-026	26	images_fmri/mirror/mirror_05s.jpg	unseen	4805	401	5	None	1006.0	14336.0	5.0	unseen-within	1	4	114.75	2.98	True	True	114.75067800097167	117.73169626994058	[['a', 116.44254231802188]]	-2.0	unseen	False	True	1.6925423180218786	2.98101826896891	1.0	25.0	1967301.1395	False		True			
3	ses-026	27	images_fmri/cranberry/cranberry_05s.jpg	seen	2117	177	5	None	431.0	6222.0	5.0	seen-within-between-within-between	5	4	119.22	2.98	False	False	119.21845517191105	122.19770440692082	[['b', 121.75122264586389]]	-1.0	unseen	True	False	2.531222645863892	2.9792492350097746	1.0	26.0	1967305.6072	True	_subcondition:seen-within-between-within-between_repetition:5	True	7.0	0.0	303.0
3	ses-026	28	images_fmri/stamp2/stamp2_05s.jpg	unseen	7169	598	5	None	1537.0	21722.0	5.0	unseen-within	1	4	123.69	2.98	False	False	123.68509112484752	126.66304258583114	[['x', 125.03887078189291]]	2.0	seen	True	True	1.3488707818929129	2.977951460983604	1.0	27.0	1967310.0739	False		True			
3	ses-026	29	images_fmri/tumbleweed/tumbleweed_05s.jpg	seen	8045	671	5	None	1728.0	24357.0	5.0	seen-within-between-within-between	5	4	128.16	2.98	False	False	128.16645634989254	131.13044451689348	[['x', 129.61110302293673], ['a', 130.10221051005647], ['x', 130.71077929786406]]	2.0	seen	False	True	1.451103022936735	2.9639881670009345	1.0	28.0	1967314.5552	True	_subcondition:seen-within-between-within-between_repetition:5	True	7.0	0.0	309.0
3	ses-026	30	images_fmri/key/key_05s.jpg	seen	4121	344	5	None	870.0	12445.0	5.0	seen-between-between-within	4	4	132.63	2.98	True	True	132.633178767981	135.61431235005148	[['b', 134.53784663090482]]	2.0	seen	False	True	1.907846630904828	2.98113358207047	1.0	29.0	1967319.022	True	_subcondition:seen-between-between-within_repetition:4	True	0.0	84.93080000020564	19.0
3	ses-026	31	images_fmri/airbag/airbag_05s.jpg	unseen	17	2	5	None	8.0	102.0	5.0	unseen-between	1	4	137.1	2.98	False	True	137.1013960458804	140.08015337889083	[['y', 139.31201773602515]]	-2.0	unseen	False	True	2.2120177360251603	2.978757333010435	1.0	30.0	1967323.4902	False		True			
3	ses-026	32	images_fmri/beetle/beetle_05n.jpg	unseen	569	48	5	None	116.0	1770.0	5.0	unseen-between	1	4	141.57	2.98	False	True	141.5636210369412	144.5469936549198	[['y', 142.8351314170286]]	-2.0	unseen	False	True	1.2651314170286128	2.983372617978602	1.0	31.0	1967327.9524	False		True			
3	ses-026	33	images_fmri/pear/pear_05s.jpg	seen	5429	453	5	None	1134.0	16145.0	5.0	seen-within	2	4	146.04	2.98	True	True	146.0298797748983	149.0132319049444	[['y', 148.43290770682506], ['x', 148.91635214304551]]	1.0	seen	False	False	2.3929077068250706	2.9833521300461143	1.0	32.0	1967332.4187	False		True	0.0	238.62609999999404	34.0
3	ses-026	34	images_fmri/doormat/doormat_05s.jpg	seen	2537	212	5	None	512.0	7419.0	5.0	seen-within	2	4	150.51	2.98	False	False	150.51049208198674	153.4771945849061	[['x', 151.94206213089637]]	2.0	seen	False	True	1.4320621308963837	2.966702502919361	1.0	33.0	1967336.8993	False		True	0.0	328.03429999994114	54.0
3	ses-026	35	images_fmri/koala/koala_05s.jpg	seen	4181	349	5	None	885.0	12670.0	5.0	seen-between-between-within	4	4	154.98	2.98	False	False	154.9771232889034	157.96037351200357	[['x', 156.95097630587406]]	2.0	seen	False	True	1.9709763058740748	2.9832502231001854	1.0	34.0	1967341.3659	True	_subcondition:seen-between-between-within_repetition:4	True	0.0	497.9029000001028	92.0
3	ses-026	36	images_fmri/bracelet2/bracelet2_05s.jpg	seen	953	80	5	None	189.0	2864.0	5.0	seen-within	2	4	159.45	2.98	True	True	159.44405481987633	162.42688620486297	[['b', 160.42813774105161]]	2.0	seen	False	True	0.9781377410516257	2.982831384986639	1.0	35.0	1967345.8328	False		True	0.0	75.99670000001788	17.0
3	ses-026	37	images_fmri/chipmunk/chipmunk_05s.jpg	seen	1733	145	5	None	335.0	4840.0	5.0	seen-within	2	4	163.92	2.98	False	False	163.91054425085895	166.89383411686867	[['x', 164.74423829698935]]	2.0	seen	False	True	0.824238296989364	2.983289866009727	1.0	36.0	1967350.2993	False		True	0.0	156.44350000005215	35.0
3	ses-026	38	images_fmri/microphone/microphone_05s.jpg	unseen	4757	397	5	None	999.0	14223.0	5.0	unseen-between	1	4	168.39	2.98	True	False	168.3771080658771	171.3602807559073	[['y', 170.17402939405292], ['b', 170.71260028798133]]	1.0	seen	True	False	1.7840293940529364	2.983172690030188	1.0	37.0	1967354.7659	False		True			
3	ses-026	39	images_fmri/needle/needle_05n.jpg	seen	5045	421	5	None	1056.0	15033.0	5.0	seen-between-between	3	4	172.86	2.98	False	False	172.86003711796366	175.8266059330199	[['y', 174.48691798886284], ['b', 175.6413770299405]]	-2.0	unseen	True	True	1.626917988862829	2.9665688150562346	1.0	38.0	1967359.2488	True	_subcondition:seen-between-between_repetition:3	True	7.0	0.0	520.0
3	ses-026	40	images_fmri/odometer/odometer_05s.jpg	seen	5141	429	5	None	1072.0	15240.0	5.0	seen-within-between-within-between	5	4	177.32999999999996	2.98	True	False	177.32656669290736	180.3098328348715	[['b', 179.48822303698398]]	-1.0	unseen	True	False	2.158223036984026	2.9832661419641227	1.0	39.0	1967363.7153	True	_subcondition:seen-within-between-within-between_repetition:5	True	7.0	0.0	248.0
3	ses-026	41	images_fmri/gargoyle/gargoyle_05s.jpg	seen	3173	265	5	None	658.0	9450.0	5.0	seen-between-between-within	4	4	181.8	2.98	False	True	181.79352831002325	184.77683401294053	[['b', 182.8176894329954]]	2.0	seen	False	True	1.0176894329953825	2.983305702917278	1.0	40.0	1967368.1823	True	_subcondition:seen-between-between-within_repetition:4	True	0.0	75.99099999992177	17.0
3	ses-026	42	images_fmri/skunk/skunk_05s.jpg	seen	6821	569	5	None	1460.0	20698.0	5.0	seen-between-between-within	4	4	186.27	2.98	False	True	186.2600921748672	189.2433921878692	[['b', 187.13403292302974]]	2.0	seen	False	True	0.8640329230297255	2.983300013002008	1.0	41.0	1967372.6489	True	_subcondition:seen-between-between-within_repetition:4	True	0.0	84.92460000002757	19.0
3	ses-026	43	images_fmri/birdcage/birdcage_05s.jpg	unseen	653	55	5	None	131.0	2013.0	5.0	unseen-between	1	4	190.74	2.98	False	True	190.72681220597588	193.7096104200464	[['y', 192.7487588878721]]	-2.0	unseen	False	True	2.008758887872091	2.982798214070499	1.0	42.0	1967377.1156	False		True			
3	ses-026	44	images_fmri/limousine/limousine_05s.jpg	unseen	4409	368	5	None	932.0	13309.0	5.0	unseen-between	1	4	195.21	2.98	True	False	195.211489059031	198.1785968770273	[['a', 196.96265507885255]]	-2.0	unseen	False	True	1.7526550788525412	2.9671078179962933	1.0	43.0	1967381.6003	False		True			
3	ses-026	45	images_fmri/gravel/gravel_05n.jpg	seen	3437	287	5	None	710.0	10187.0	5.0	seen-within	2	4	199.68	2.98	True	False	199.68177693383768	202.6622309000232	[['x', 201.0517616700381]]	2.0	seen	False	True	1.3717616700380972	2.9804539661854506	1.0	44.0	1967386.0706	False		True	0.0	332.50740000000224	55.0
3	ses-026	46	images_fmri/handcuff/handcuff_05s.jpg	unseen	3641	304	5	None	747.0	10699.0	5.0	unseen-between	1	4	204.15	2.98	True	False	204.1489341158885	207.12895272788592	[['a', 205.56202831794508]]	-2.0	unseen	False	True	1.4120283179450723	2.980018611997366	1.0	45.0	1967390.5377	False		True			
3	ses-026	47	images_fmri/headphones/headphones_05s.jpg	seen	3701	309	5	None	767.0	10985.0	5.0	seen-between-between	3	4	208.62	2.98	True	True	208.6165930829011	211.59526949794963	[['x', 210.87664517294616]]	-1.0	unseen	True	False	2.2566451729461505	2.97867641504854	1.0	46.0	1967395.0054	True	_subcondition:seen-between-between_repetition:3	True	7.0	0.0	492.0
3	ses-026	48	images_fmri/bullet/bullet_05s.jpg	seen	1109	93	5	None	217.0	3260.0	5.0	seen-within-between-within-between	5	4	213.09	2.98	True	False	213.08203642698936	216.06118449289352	[['a', 214.54367116792127]]	-2.0	unseen	True	True	1.4536711679212715	2.979148065904156	1.0	47.0	1967399.4708	True	_subcondition:seen-within-between-within-between_repetition:5	True	7.0	0.0	391.0
3	ses-026	49	images_fmri/trap/trap_05s.jpg	seen	7937	662	5	None	1703.0	24023.0	5.0	seen-between-between-within	4	4	217.56	2.98	False	True	217.5645309679676	220.52756001404487	[['b', 218.79502322804183]]	2.0	seen	False	True	1.2350232280418254	2.963029046077281	1.0	48.0	1967403.9533	True	_subcondition:seen-between-between-within_repetition:4	True	0.0	702.0651000000071	117.0
3	ses-026	50	images_fmri/bib/bib_05s.jpg	seen	605	51	5	None	123.0	1875.0	5.0	seen-within	2	4	222.03	2.98	False	False	222.03157401201315	225.0144337690436	[['x', 223.22866627690382]]	2.0	seen	False	True	1.198666276903822	2.9828597570303828	1.0	49.0	1967408.4204	False		True	0.0	742.2989999998827	126.0
3	ses-026	51	images_fmri/hedge/hedge_05s.jpg	seen	3713	310	5	None	774.0	11075.0	5.0	seen-between-between	3	4	226.5	2.98	False	True	226.49825437786052	229.4795572110452	[['a', 228.10048837098293]]	1.0	seen	False	False	1.60048837098293	2.9813028331846	1.0	50.0	1967412.887	True	_subcondition:seen-between-between_repetition:3	True	7.0	0.0	323.0
3	ses-026	52	images_fmri/blind/blind_05s.jpg	seen	749	63	5	None	141.0	2145.0	5.0	seen-between-between	3	4	230.97	2.98	False	True	230.96616887301207	233.943926977925	[['y', 232.2876282108482]]	-2.0	unseen	True	True	1.3176282108481985	2.9777581049129367	1.0	51.0	1967417.3549	True	_subcondition:seen-between-between_repetition:3	True	7.0	0.0	526.0
3	ses-026	53	images_fmri/hairbrush/hairbrush_05s.jpg	seen	3557	297	5	None	735.0	10540.0	5.0	seen-within-between-within-between	5	4	235.44	2.98	True	True	235.4320002158638	238.4106647789013	[['x', 238.03951272997074]]	-1.0	unseen	True	False	2.599512729970741	2.978664563037455	1.0	52.0	1967421.8208	True	_subcondition:seen-within-between-within-between_repetition:5	True	7.0	0.0	491.0
3	ses-026	54	images_fmri/crown/crown_05n.jpg	seen	2237	187	5	None	449.0	6499.0	5.0	seen-between-between-within	4	4	239.91	2.98	False	True	239.9142069139052	242.87700402294288	[['b', 241.44350459985435]]	2.0	seen	False	True	1.5335045998543535	2.9627971090376377	1.0	53.0	1967426.303	True	_subcondition:seen-between-between-within_repetition:4	True	0.0	1212.906399999978	207.0
3	ses-026	55	images_fmri/stamp2/stamp2_05s.jpg	seen	7169	598	5	None	1537.0	21722.0	5.0	seen-within	2	4	244.38	2.98	False	True	244.38035012898035	247.3626763708889	[['b', 245.99427238292992]]	2.0	seen	False	True	1.6142723829299257	2.982326241908595	1.0	54.0	1967430.7691	False		True	0.0	120.69519999995828	27.0
3	ses-026	56	images_fmri/viewfinder/viewfinder_05s.jpg	seen	8213	685	5	None	1764.0	24864.0	5.0	seen-between-between-within	4	4	248.85	2.98	True	True	248.8476697029546	251.8273560178932	[['y', 251.27121882583015]]	1.0	seen	False	False	2.4212188258301524	2.97968631493859	1.0	55.0	1967435.2364	True	_subcondition:seen-between-between-within_repetition:4	True	0.0	930.0275000000838	168.0
3	ses-026	57	images_fmri/mistletoe/mistletoe_05n.jpg	seen	4829	403	5	None	1008.0	14365.0	5.0	seen-between-between-within	4	4	253.32	2.98	True	False	253.31435619993127	256.29473070194945	[['y', 254.9233411019668]]	1.0	seen	False	False	1.6033411019668051	2.980374502018094	1.0	56.0	1967439.7031	True	_subcondition:seen-between-between-within_repetition:4	True	0.0	769.1014000000432	132.0
3	ses-026	58	images_fmri/needle/needle_05n.jpg	seen	5045	421	5	None	1056.0	15033.0	5.0	seen-between-between-within	4	4	257.79	2.98	False	False	257.7962863659486	260.7614123749081	[['x', 259.04341432102956]]	2.0	seen	False	True	1.2534143210295383	2.965126008959487	1.0	57.0	1967444.1851	True	_subcondition:seen-between-between-within_repetition:4	True	0.0	84.936299999943	19.0
3	ses-026	59	images_fmri/tarp/tarp_05s.jpg	unseen	7565	631	5	None	1629.0	23002.0	5.0	unseen-within	1	4	262.26	2.98	False	True	262.2634642079938	265.22735571092926	[['y', 264.8662395689171]]	-2.0	unseen	False	True	2.60623956891709	2.96389150293544	1.0	58.0	1967448.6522	False		True			
3	ses-026	60	images_fmri/cufflink/cufflink_05s.jpg	unseen	2285	191	5	None	459.0	6642.0	5.0	unseen-between	1	4	266.73	2.98	True	True	266.7311957369093	269.7116404129192	[['a', 267.97712998487987]]	-2.0	unseen	False	True	1.247129984879848	2.980444676009938	1.0	59.0	1967453.12	False		True			
