subject	session	TrialNumber	image_path	condition	image_nr	category_nr	exemplar_nr	test_image_nr	things_category_nr	things_image_nr	things_exemplar_nr	subcondition	repetition	run	onset	duration	response_mapping_flip_h	response_mapping_flip_v	onset_flip	offset_flip	keypresses	response	response_txt	error	response_confidence	response_time	duration_flip	ran	order	session_trial_time	atypical	atypical_log	exclude_session	delay_days	delay_seconds	trials_since_lastrep
02	ses-022	1	images_fmri/gondola/gondola_06s.jpg	seen	3330	278	6	None	692.0	9900.0	6.0	seen-between-within	3	5	3.0	2.98	True	False	2.9988942979834974	5.983710300002713	[['x', 4.230504940962419]]	2.0	seen	False	True	1.230504940962419	2.984816002019216	1.0	0.0	438620.6325	False		False	0.0	268.508199999982	45.0
02	ses-022	2	images_fmri/eggplant/eggplant_06s.jpg	unseen	2742	229	6	None	551.0	7996.0	6.0	unseen-between	1	5	7.47	2.98	False	False	7.465452954987995	10.448774767981376	[['b', 9.459814210014883]]	-1.0	unseen	False	False	1.989814210014884	2.983321812993381	1.0	1.0	438625.0990	False		False			
02	ses-022	3	images_fmri/punching_bag/punching_bag_06s.jpg	unseen	6030	503	6	None	1257.0	17907.0	6.0	unseen-between	1	5	11.94	2.98	True	True	11.933908106002493	14.916966501972638	[['y', 13.66340440796921]]	1.0	seen	True	False	1.7234044079692108	2.983058395970147	1.0	2.0	438629.5675	False		False			
02	ses-022	4	images_fmri/grate/grate_06s.jpg	seen	3426	286	6	None	708.0	10159.0	6.0	seen-between	2	5	16.41	2.98	True	False	16.403198326996062	19.384077338967472	[['b', 18.90552500198828]]	-1.0	unseen	True	False	2.4955250019882804	2.9808790119714104	1.0	3.0	438634.0368	False		False	7.0	0.0	329.0
02	ses-022	5	images_fmri/shaving_cream/shaving_cream_06s.jpg	seen	6618	552	6	None	1411.0	20029.0	6.0	seen-within	2	5	20.88	2.98	False	True	20.88583961699624	23.85271304898197	[['b', 21.87130529701244]]	2.0	seen	False	True	0.991305297012442	2.966873431985732	1.0	4.0	438638.5194	False		False	0.0	1174.6398000000045	89.0
02	ses-022	6	images_fmri/cannon/cannon_06s.jpg	seen	1374	115	6	None	261.0	3838.0	6.0	seen-between-within	3	5	25.35	2.98	False	False	25.35157999501098	28.33592296997085	[['x', 26.490239572012797]]	2.0	seen	False	True	1.1402395720127956	2.9843429749598727	1.0	5.0	438642.9851	False		False	0.0	1826.9543999999878	193.0
02	ses-022	7	images_fmri/solar_panel/solar_panel_06s.jpg	seen	6966	581	6	None	1494.0	21144.0	6.0	seen-between	2	5	29.82	2.98	False	True	29.81840720801847	32.80016317899572	[['a', 31.691120092989877]]	1.0	seen	False	False	1.8711200929898768	2.9817559709772468	1.0	6.0	438647.4520	False		False	7.0	0.0	278.0
02	ses-022	8	images_fmri/shovel/shovel_06s.jpg	seen	6702	559	6	None	1433.0	20320.0	6.0	seen-between-within	3	5	34.29	2.98	False	True	34.28263214696199	37.26482936000684	[['b', 35.15660616301466]]	2.0	seen	False	True	0.8666061630146586	2.982197213044856	1.0	7.0	438651.9162	False		False	0.0	1103.105899999966	73.0
02	ses-022	9	images_fmri/boa/boa_06s.jpg	seen	786	66	6	None	151.0	2305.0	6.0	seen-within	2	5	38.76	2.98	True	False	38.75212230096804	41.73123202199349	[['x', 39.95829640200827]]	2.0	seen	False	True	1.1982964020082747	2.979109721025452	1.0	8.0	438656.3857	False		False	0.0	1710.8144999999786	188.0
02	ses-022	10	images_fmri/manatee/manatee_06s.jpg	seen	4578	382	6	None	965.0	13755.0	6.0	seen-between	2	5	43.23	2.98	False	False	43.23476224200567	46.19782543199835	[['a', 45.174074154987466]]	1.0	seen	False	False	1.9440741549874687	2.963063189992681	1.0	9.0	438660.8683	False		False	7.0	0.0	537.0
02	ses-022	11	images_fmri/beaker/beaker_06s.jpg	unseen	474	40	6	None	102.0	1533.0	6.0	unseen-between	1	5	47.7	2.98	True	False	47.69897025200771	50.68257511599222	[['b', 49.995200157980435]]	-1.0	unseen	False	False	2.295200157980432	2.9836048639845103	1.0	10.0	438665.3325	False		False			
02	ses-022	12	images_fmri/scissors/scissors_06s.jpg	seen	6510	543	6	None	1380.0	19600.0	6.0	seen-between	2	5	52.17	2.98	True	True	52.16776351397857	55.148997676966246	[['x', 53.60832614696119]]	-1.0	unseen	True	False	1.438326146961188	2.9812341629876755	1.0	11.0	438669.8013	False		False	7.0	0.0	477.0
02	ses-022	13	images_fmri/bench/bench_06s.jpg	seen	594	50	6	None	121.0	1848.0	6.0	seen-within	2	5	56.64	2.98	True	False	56.635024837974925	59.61412459000712	[['x', 57.63908312097192]]	2.0	seen	False	True	0.9990831209719176	2.979099752032198	1.0	12.0	438674.2686	False		False	0.0	1603.5434000000241	164.0
02	ses-022	14	images_fmri/soda_fountain/soda_fountain_06s.jpg	seen	6954	580	6	None	1492.0	21118.0	6.0	seen-between	2	5	61.11	2.98	True	False	61.10166532796575	64.08225229999516	[['x', 62.467851641005836]]	2.0	seen	False	True	1.357851641005837	2.980586972029414	1.0	13.0	438678.7352	False		False	7.0	0.0	294.0
02	ses-022	15	images_fmri/soda_fountain/soda_fountain_06s.jpg	seen	6954	580	6	None	1492.0	21118.0	6.0	seen-between-within	3	5	65.58	2.98	True	False	65.58421201701276	68.55090581998229	[['x', 66.46512268000515]]	2.0	seen	False	True	0.8851226800051535	2.9666938029695302	1.0	14.0	438683.2178	False		False	0.0	4.482599999988452	1.0
02	ses-022	16	images_fmri/chicken_wire/chicken_wire_06s.jpg	unseen	1674	140	6	None	323.0	4684.0	6.0	unseen-between	1	5	70.05	2.98	False	False	70.04729144001612	73.03201077500125	[['a', 71.82611333200475]]	1.0	seen	True	False	1.7761133320047549	2.984719334985129	1.0	15.0	438687.6808	False		False			
02	ses-022	17	images_fmri/hourglass/hourglass_06n.jpg	seen	3870	323	6	None	808.0	11554.0	6.0	seen-between	2	5	74.52	2.98	True	False	74.51869664998958	77.49868823698489	[['y', 75.9412051999825]]	1.0	seen	False	False	1.4212051999825093	2.979991586995311	1.0	16.0	438692.1523	False		False	7.0	0.0	311.0
02	ses-022	18	images_fmri/manatee/manatee_06s.jpg	seen	4578	382	6	None	965.0	13755.0	6.0	seen-between-within	3	5	78.99	2.98	False	True	78.98448404000374	81.9665187309729	[['b', 79.85091169696534]]	2.0	seen	False	True	0.8609116969653456	2.982034690969158	1.0	17.0	438696.6180	False		False	0.0	35.74970000004396	8.0
02	ses-022	19	images_fmri/sombrero/sombrero_06s.jpg	unseen	6978	582	6	None	1496.0	21171.0	6.0	unseen-within	1	5	83.46	2.98	False	True	83.45091917796526	86.4321027409751	[['b', 85.43471227196278]]	2.0	seen	True	True	1.9747122719627868	2.981183563009836	1.0	18.0	438701.0845	False		False			
02	ses-022	20	images_fmri/inhaler/inhaler_06s.jpg	unseen	3942	329	6	None	829.0	11857.0	6.0	unseen-within	1	5	87.92999999999998	2.98	False	False	87.9313628859818	90.89668713900028	[['a', 90.27469731197925]]	1.0	seen	True	False	2.3446973119792744	2.96532425301848	1.0	19.0	438705.5649	False		False			
02	ses-022	21	images_fmri/boxing_gloves/boxing_gloves_06s.jpg	seen	918	77	6	None	184.0	2789.0	6.0	seen-within	2	5	92.4	2.98	True	True	92.40079771896126	95.38141454401192	[['b', 94.9990256279707]]	2.0	seen	False	True	2.59902562797069	2.9806168250506744	1.0	20.0	438710.0344	False		False	0.0	1268.5037000000011	110.0
02	ses-022	22	images_fmri/squirrel/squirrel_06s.jpg	unseen	7134	595	6	None	1530.0	21624.0	6.0	unseen-within	1	5	96.87	2.98	False	False	96.86310116300592	99.84834187699016	[['a', 99.63570145500125]]	1.0	seen	True	False	2.765701455001249	2.98524071398424	1.0	21.0	438714.4967	False		False			
02	ses-022	23	images_fmri/wire_cutters/wire_cutters_06s.jpg	seen	8526	711	6	None	1830.0	25774.0	6.0	seen-between-within	3	5	101.34	2.98	False	True	101.3295169529738	104.31765356997494	[['b', 102.2467809880036]]	2.0	seen	False	True	0.9067809880035896	2.988136617001146	1.0	22.0	438718.9631	False		False	0.0	335.5557999999728	60.0
02	ses-022	24	images_fmri/granola/granola_06s.jpg	unseen	3378	282	6	None	702.0	10056.0	6.0	unseen-within	1	5	105.81	2.98	True	True	105.81704989500577	108.78409724996892	[['x', 109.0465758430073]]	-1.0	unseen	False	False	3.236575843007301	2.9670473549631424	1.0	23.0	438723.4506	False		False			
02	ses-022	25	images_fmri/weasel/weasel_06s.jpg	unseen	8394	700	6	None	1798.0	25330.0	6.0	unseen-between	1	5	110.28	2.98	True	True	110.28101042000344	113.2647557670134	[['a', 112.49496212799568]]	-2.0	unseen	False	True	2.214962127995676	2.983745347009972	1.0	24.0	438727.9146	False		False			
02	ses-022	26	images_fmri/coat/coat_06s.jpg	seen	1842	154	6	None	370.0	5341.0	6.0	seen-within-between	3	5	114.75	2.98	False	False	114.7459682719782	117.73110448697116	[['b', 116.21463595097885]]	-1.0	unseen	True	False	1.4646359509788454	2.9851362149929628	1.0	25.0	438732.3795	False		False	7.0	0.0	448.0
02	ses-022	27	images_fmri/blazer/blazer_06s.jpg	seen	714	60	6	None	138.0	2105.0	6.0	seen-within	2	5	119.22	2.98	False	True	119.21487009897828	122.20043546700616	[['b', 120.20588964800118]]	2.0	seen	False	True	0.9858896480011764	2.985565368027892	1.0	26.0	438736.8484	False		False	0.0	331.0910000000149	59.0
02	ses-022	28	images_fmri/sombrero/sombrero_06s.jpg	seen	6978	582	6	None	1496.0	21171.0	6.0	seen-within	2	5	123.69	2.98	True	False	123.67935423797462	126.66360548400552	[['x', 124.68976458301768]]	2.0	seen	False	True	0.9997645830176792	2.984251246030908	1.0	27.0	438741.3129	False		False	0.0	40.22840000002179	9.0
02	ses-022	29	images_fmri/polaroid/polaroid_06s.jpg	unseen	5790	483	6	None	1213.0	17246.0	6.0	unseen-between	1	5	128.16	2.98	True	True	128.1638368680142	131.1290064639761	[['x', 130.45371486700606]]	-1.0	unseen	False	False	2.2937148670060594	2.9651695959619246	1.0	28.0	438745.7974	False		False			
02	ses-022	30	images_fmri/lime/lime_06s.jpg	seen	4398	367	6	None	931.0	13296.0	6.0	seen-within-between	3	5	132.63	2.98	True	True	132.6324395639822	135.6145718829939	[['y', 134.7066719479626]]	1.0	seen	False	False	2.076671947962609	2.982132319011725	1.0	29.0	438750.2660	False		False	7.0	0.0	590.0
02	ses-022	31	images_fmri/okra/okra_06s.jpg	seen	5154	430	6	None	1075.0	15286.0	6.0	seen-between	2	5	137.1	2.98	False	True	137.09538913401775	140.08027177699842	[['a', 139.0577174089849]]	1.0	seen	False	False	1.9577174089849048	2.984882642980665	1.0	30.0	438754.7289	False		False	7.0	0.0	408.0
02	ses-022	32	images_fmri/scissors/scissors_06s.jpg	seen	6510	543	6	None	1380.0	19600.0	6.0	seen-between-within	3	5	141.57	2.98	True	False	141.56195774296066	144.54953095200472	[['x', 142.5967936149682]]	2.0	seen	False	True	1.0267936149681989	2.987573209044058	1.0	31.0	438759.1955	False		False	0.0	89.39419999998063	20.0
02	ses-022	33	images_fmri/tongs/tongs_06s.jpg	seen	7806	651	6	None	1675.0	23647.0	6.0	seen-within-between	3	5	146.04	2.98	False	True	146.0327084530145	149.01355871296255	[['b', 147.20546954497695]]	2.0	seen	False	True	1.1654695449769576	2.980850259948056	1.0	32.0	438763.6663	False		False	7.0	0.0	591.0
02	ses-022	34	images_fmri/wheelbarrow/wheelbarrow_06s.jpg	seen	8430	703	6	None	1808.0	25469.0	6.0	seen-between-within	3	5	150.51	2.98	True	True	150.51349832699634	153.48141358199064	[['b', 151.5922370320186]]	2.0	seen	False	True	1.082237032018611	2.9679152549942955	1.0	33.0	438768.1471	False		False	0.0	1384.733499999973	136.0
02	ses-022	35	images_fmri/pizza/pizza_06s.jpg	seen	5670	473	6	None	1193.0	16965.0	6.0	seen-within-between	3	5	154.98	2.98	True	False	154.97832160600228	157.96323518297868	[['x', 156.44806547899498]]	2.0	seen	False	True	1.468065478994987	2.984913576976396	1.0	34.0	438772.6119	False		False	7.0	0.0	402.0
02	ses-022	36	images_fmri/binoculars/binoculars_06s.jpg	unseen	630	53	6	None	128.0	1964.0	6.0	unseen-between	1	5	159.45	2.98	False	True	159.44918738101842	162.42984114098363	[['x', 161.05928899598075]]	-1.0	unseen	False	False	1.609288995980762	2.9806537599652074	1.0	35.0	438777.0827	False		False			
02	ses-022	37	images_fmri/beer/beer_06s.jpg	unseen	546	46	6	None	114.0	1740.0	6.0	unseen-within	1	5	163.92	2.98	True	False	163.91288224700838	166.89639248297317	[['b', 165.38917359296465]]	-1.0	unseen	False	False	1.4691735929646654	2.9835102359647863	1.0	36.0	438781.5464	False		False			
02	ses-022	38	images_fmri/lizard/lizard_06n.jpg	unseen	4458	372	6	None	938.0	13398.0	6.0	unseen-between	1	5	168.39	2.98	False	False	168.38267929898575	171.3658791409689	[['b', 169.68217102898052]]	-1.0	unseen	False	False	1.2921710289805333	2.9831998419831507	1.0	37.0	438786.0162	False		False			
02	ses-022	39	images_fmri/spoon/spoon_06s.jpg	unseen	7086	591	6	None	1520.0	21490.0	6.0	unseen-within	1	5	172.86	2.98	True	False	172.86206411098829	175.82801319897408	[['a', 174.9966696089832]]	-2.0	unseen	False	True	2.1366696089831976	2.9659490879857917	1.0	38.0	438790.4956	False		False			
02	ses-022	40	images_fmri/knife/knife_06s.jpg	seen	4158	347	6	None	880.0	12596.0	6.0	seen-within-between	3	5	177.32999999999996	2.98	False	False	177.33200603100704	180.31311876996187	[['b', 179.73848297900986]]	-1.0	unseen	True	False	2.408482979009904	2.981112738954834	1.0	39.0	438794.9656	False		False	7.0	0.0	464.0
02	ses-022	41	images_fmri/skunk/skunk_06s.jpg	unseen	6822	569	6	None	1460.0	20699.0	6.0	unseen-between	1	5	181.8	2.98	True	True	181.79705531999932	184.7793881049729	[['x', 183.2512209439883]]	-1.0	unseen	False	False	1.4512209439882895	2.9823327849735506	1.0	40.0	438799.4306	False		False			
02	ses-022	42	images_fmri/okra/okra_06s.jpg	seen	5154	430	6	None	1075.0	15286.0	6.0	seen-between-within	3	5	186.27	2.98	False	False	186.2635841710144	189.24940085900016	[['x', 187.22145988600096]]	2.0	seen	False	True	0.9514598860009472	2.985816687985789	1.0	41.0	438803.8971	False		False	0.0	49.16820000001462	11.0
02	ses-022	43	images_fmri/motorcycle/motorcycle_06s.jpg	seen	4926	411	6	None	1026.0	14622.0	6.0	seen-within	2	5	190.74	2.98	True	False	190.72756433096947	193.7142436070135	[['x', 191.683367102989]]	2.0	seen	False	True	0.9433671029889864	2.986679276044015	1.0	42.0	438808.3611	False		False	0.0	509.88610000000335	99.0
02	ses-022	44	images_fmri/bee/bee_06s.jpg	seen	534	45	6	None	112.0	1700.0	6.0	seen-within	2	5	195.21	2.98	False	True	195.21209543099397	198.17739515198627	[['b', 196.11730925698066]]	2.0	seen	False	True	0.9073092569806532	2.965299720992334	1.0	43.0	438812.8457	False		False	0.0	299.81040000001667	52.0
02	ses-022	45	images_fmri/candy/candy_06s.jpg	seen	1338	112	6	None	256.0	3774.0	6.0	seen-between-within	3	5	199.68	2.98	True	False	199.67730902996848	202.6642421580036	[['x', 200.66223266901216]]	2.0	seen	False	True	0.9822326690121486	2.9869331280351616	1.0	44.0	438817.3109	False		False	0.0	1456.2468999999692	152.0
02	ses-022	46	images_fmri/shower/shower_06s.jpg	unseen	6714	560	6	None	1434.0	20332.0	6.0	unseen-between	1	5	204.15	2.98	False	True	204.14800901297716	207.12932527501837	[['b', 205.43339281500084]]	2.0	seen	True	True	1.2833928150008376	2.9813162620412186	1.0	45.0	438821.7816	False		False			
02	ses-022	47	images_fmri/blueberry/blueberry_06n.jpg	seen	774	65	6	None	150.0	2293.0	6.0	seen-between	2	5	208.62	2.98	False	False	208.61044631298864	211.59797002200503	[['x', 209.63041562598664]]	2.0	seen	False	True	1.0104156259866386	2.9875237090163864	1.0	46.0	438826.2440	False		False	7.0	0.0	361.0
02	ses-022	48	images_fmri/christmas_tree/christmas_tree_06s.jpg	unseen	1758	147	6	None	342.0	4938.0	6.0	unseen-between	1	5	213.09	2.98	True	False	213.08129814901625	216.06187362101628	[['a', 215.6742398159695]]	-2.0	unseen	False	True	2.5842398159694824	2.980575472000055	1.0	47.0	438830.7149	False		False			
02	ses-022	49	images_fmri/granola/granola_06s.jpg	seen	3378	282	6	None	702.0	10056.0	6.0	seen-within	2	5	217.56	2.98	True	False	217.5602432579617	220.5269995679846	[['x', 218.4703463849728]]	2.0	seen	False	True	0.9103463849727972	2.9667563100229017	1.0	48.0	438835.1938	False		False	0.0	111.74320000002626	25.0
02	ses-022	50	images_fmri/meat_grinder/meat_grinder_06s.jpg	seen	4722	394	6	None	989.0	14089.0	6.0	seen-within-between	3	5	222.03	2.98	True	True	222.0314820689964	225.01164251798764	[['y', 224.270246466971]]	1.0	seen	False	False	2.2402464669710014	2.980160448991228	1.0	49.0	438839.6650	False		False	7.0	0.0	352.0
02	ses-022	51	images_fmri/raccoon/raccoon_06n.jpg	unseen	6066	506	6	None	1267.0	18056.0	6.0	unseen-within	1	5	226.5	2.98	False	True	226.4963747949805	229.4768636630033	[['x', 229.37526248797076]]	-1.0	unseen	False	False	2.8752624879707582	2.980488868022803	1.0	50.0	438844.1299	False		False			
02	ses-022	52	images_fmri/ribbon/ribbon_06s.jpg	seen	6270	523	6	None	1309.0	18636.0	6.0	seen-within-between	3	5	230.97	2.98	True	True	230.9612084659748	233.94480098900385	[['y', 232.32796989899362]]	1.0	seen	False	False	1.3579698989936162	2.983592523029074	1.0	51.0	438848.5948	False		False	7.0	0.0	479.0
02	ses-022	53	images_fmri/teapot/teapot_06s.jpg	seen	7590	633	6	None	1635.0	23094.0	6.0	seen-within-between	3	5	235.44	2.98	False	True	235.447355345008	238.41408397298076	[['a', 236.56194867700106]]	1.0	seen	False	False	1.1219486770010576	2.9667286279727705	1.0	52.0	438853.0809	False		False	7.0	0.0	595.0
02	ses-022	54	images_fmri/airbag/airbag_06s.jpg	seen	18	2	6	None	8.0	103.0	6.0	seen-between-within	3	5	239.91	2.98	False	True	239.91263286297908	242.88054697896587	[['b', 240.84587512898725]]	2.0	seen	False	True	0.9358751289872488	2.967914115986787	1.0	53.0	438857.5462	False		False	0.0	2224.7772000000114	282.0
02	ses-022	55	images_fmri/revolver/revolver_06s.jpg	seen	6234	520	6	None	1305.0	18579.0	6.0	seen-between-within	3	5	244.38	2.98	True	True	244.3762264510151	247.36323271301808	[['b', 245.50614068796858]]	2.0	seen	False	True	1.1261406879685865	2.9870062620029785	1.0	54.0	438862.0098	False		False	0.0	1509.8778000000166	164.0
02	ses-022	56	images_fmri/inhaler/inhaler_06s.jpg	seen	3942	329	6	None	829.0	11857.0	6.0	seen-within	2	5	248.85	2.98	False	False	248.84550113696605	251.8280617030105	[['x', 249.79637580097187]]	2.0	seen	False	True	0.9463758009718788	2.982560566044413	1.0	55.0	438866.4791	False		False	0.0	160.91419999999925	36.0
02	ses-022	57	images_fmri/scone/scone_06s.jpg	unseen	6522	544	6	None	1381.0	19614.0	6.0	unseen-between	1	5	253.32	2.98	False	True	253.30941417097347	256.294332873018	[['b', 254.67986254999414]]	2.0	seen	True	True	1.3598625499941477	2.9849187020445243	1.0	56.0	438870.9430	False		False			
02	ses-022	58	images_fmri/cufflink/cufflink_06s.jpg	seen	2286	191	6	None	459.0	6643.0	6.0	seen-within	2	5	257.79	2.98	False	True	257.7941981329932	260.762743350002	[['b', 258.64840513601666]]	2.0	seen	False	True	0.8584051360166427	2.968545217008796	1.0	57.0	438875.4278	False		False	0.0	438.37060000002384	83.0
02	ses-022	59	images_fmri/squirrel/squirrel_06s.jpg	seen	7134	595	6	None	1530.0	21624.0	6.0	seen-within	2	5	262.26	2.98	False	True	262.25923204998253	265.2456536230165	[['b', 263.28425377601525]]	2.0	seen	False	True	1.0242537760152572	2.986421573034022	1.0	58.0	438879.8928	False		False	0.0	165.39609999995446	37.0
02	ses-022	60	images_fmri/rabbit/rabbit_06s.jpg	unseen	6054	505	6	None	1266.0	18042.0	6.0	unseen-within	1	5	266.73	2.98	True	False	266.73012624599505	269.7103081319947	[['y', 268.2880658970098]]	1.0	seen	True	False	1.558065897009783	2.9801818859996274	1.0	59.0	438884.3637	False		False			
