subject	session	TrialNumber	image_path	condition	image_nr	category_nr	exemplar_nr	test_image_nr	things_category_nr	things_image_nr	things_exemplar_nr	subcondition	repetition	run	onset	duration	response_mapping_flip_h	response_mapping_flip_v	onset_flip	offset_flip	keypresses	response	response_txt	error	response_confidence	response_time	duration_flip	ran	order	session_trial_time	atypical	atypical_log	exclude_session	delay_days	delay_seconds	trials_since_lastrep
03	ses-001	1	images_fmri/plum/plum_03s.jpg	unseen	5739	479	3	None	1204.0	17107.0	3.0	unseen-within	1	1	3.0	2.98	False	True	2.983510971069336	5.948852062225342	[['y', 4.627839803695679]]	-2.0	unseen	False	True	1.6278398036956787	2.965341091156006	1.0	0.0	1619025600.8703	False		False			
03	ses-001	2	images_fmri/pie/pie_03s.jpg	unseen	5559	464	3	None	1169.0	16629.0	3.0	unseen-within	1	1	7.47	2.98	True	True	7.44948410987854	10.432116031646729	[['a', 8.510983943939209]]	-2.0	unseen	False	True	1.0409839439392092	2.9826319217681885	1.0	1.0	1619025605.3363	False		False			
03	ses-001	3	images_fmri/crouton/crouton_03s.jpg	unseen	2211	185	3	None	446.0	6452.0	3.0	unseen-within	1	1	11.94	2.98	False	False	11.916672945022585	14.899394989013672	[['y', 12.696704864501953]]	-2.0	unseen	False	True	0.7567048645019536	2.982722043991089	1.0	2.0	1619025609.8034	False		False			
03	ses-001	4	images_fmri/shovel/shovel_03n.jpg	unseen	6699	559	3	None	1433.0	20317.0	3.0	unseen-within	1	1	16.41	2.98	True	True	16.382861137390137	19.365560054779053	[['a', 17.252694845199585]]	-2.0	unseen	False	True	0.8426948451995848	2.982698917388916	1.0	3.0	1619025614.2696	False		False			
03	ses-001	5	images_fmri/lantern/lantern_03s.jpg	unseen	4239	354	3	None	896.0	12825.0	3.0	unseen-within	1	1	20.88	2.98	True	False	20.84897208213806	23.83203101158142	[['a', 21.705376863479614]]	-2.0	unseen	False	True	0.8253768634796153	2.98305892944336	1.0	4.0	1619025618.7357	False		False			
03	ses-001	6	images_fmri/pie/pie_03s.jpg	seen	5559	464	3	None	1169.0	16629.0	3.0	seen-within	2	1	25.35	2.98	False	False	25.331833124160767	28.29857707023621	[['x', 26.699636936187744]]	2.0	seen	False	True	1.3496369361877427	2.9667439460754395	1.0	5.0	1619025623.2186	False		False	0.0	17.88230013847351	4.0
03	ses-001	7	images_fmri/kale/kale_03s.jpg	unseen	4059	339	3	None	861.0	12308.0	3.0	unseen-within	1	1	29.82	2.98	False	True	29.798229932785038	32.78272294998169	[['y', 30.758882999420166]]	-2.0	unseen	False	True	0.9388829994201656	2.9844930171966557	1.0	6.0	1619025627.6850	False		False			
03	ses-001	8	images_fmri/headphones/headphones_03s.jpg	unseen	3699	309	3	None	767.0	10983.0	3.0	unseen-within	1	1	34.29	2.98	False	False	34.26574492454529	37.2491729259491	[['y', 35.55908679962158]]	-2.0	unseen	False	True	1.2690867996215829	2.9834280014038086	1.0	7.0	1619025632.1525	False		False			
03	ses-001	9	images_fmri/bubble/bubble_03s.jpg	unseen	1059	89	3	None	208.0	3131.0	3.0	unseen-between	1	1	38.76	2.98	True	False	38.73672413825989	41.714739084243774	[['a', 40.408615827560425]]	-2.0	unseen	False	True	1.6486158275604268	2.9780149459838867	1.0	8.0	1619025636.6235	False		False			
03	ses-001	10	images_fmri/tongs/tongs_03s.jpg	unseen	7803	651	3	None	1675.0	23644.0	3.0	unseen-within	1	1	43.23	2.98	False	True	43.203256130218506	46.18726897239685	[['y', 44.20171499252319]]	-2.0	unseen	False	True	0.9717149925231964	2.9840128421783447	1.0	9.0	1619025641.0900	False		False			
03	ses-001	11	images_fmri/headphones/headphones_03s.jpg	seen	3699	309	3	None	767.0	10983.0	3.0	seen-within	2	1	47.7	2.98	True	False	47.68503093719482	50.66443204879761	[['x', 49.16403603553772]]	2.0	seen	False	True	1.4640360355377169	2.979401111602783	1.0	10.0	1619025645.5718	False		False	0.0	13.419300079345703	3.0
03	ses-001	12	images_fmri/pineapple/pineapple_03n.jpg	unseen	5619	469	3	None	1183.0	16831.0	3.0	unseen-within	1	1	52.17	2.98	False	True	52.14862203598023	55.13438010215759	[['y', 52.97183084487915]]	-2.0	unseen	False	True	0.8018308448791487	2.985758066177368	1.0	11.0	1619025650.0354	False		False			
03	ses-001	13	images_fmri/knot/knot_03s.jpg	unseen	4167	348	3	None	884.0	12656.0	3.0	unseen-within	1	1	56.64	2.98	False	False	56.6190390586853	59.60323715209961	[['y', 57.73363900184631]]	-2.0	unseen	False	True	1.093639001846313	2.984198093414306	1.0	12.0	1619025654.5058	False		False			
03	ses-001	14	images_fmri/toast/toast_03s.jpg	unseen	7743	646	3	None	1666.0	23515.0	3.0	unseen-between	1	1	61.11	2.98	False	False	61.08619093894959	64.0662100315094	[['y', 61.94942903518677]]	-2.0	unseen	False	True	0.8394290351867681	2.9800190925598145	1.0	13.0	1619025658.9730	False		False			
03	ses-001	15	images_fmri/fern/fern_03s.jpg	unseen	2871	240	3	None	578.0	8362.0	3.0	unseen-within	1	1	65.58	2.98	False	False	65.55264711380005	68.53467512130737	[['y', 66.4059989452362]]	-2.0	unseen	False	True	0.8259989452362078	2.982028007507324	1.0	14.0	1619025663.4394	False		False			
03	ses-001	16	images_fmri/blowtorch/blowtorch_03s.jpg	unseen	759	64	3	None	149.0	2276.0	3.0	unseen-within	1	1	70.05	2.98	False	True	70.0313069820404	73.0013439655304	[['y', 71.05136895179749]]	-2.0	unseen	False	True	1.0013689517974882	2.9700369834899902	1.0	15.0	1619025667.9181	False		False			
03	ses-001	17	images_fmri/fern/fern_03s.jpg	seen	2871	240	3	None	578.0	8362.0	3.0	seen-within	2	1	74.52	2.98	True	False	74.5018789768219	77.48048901557922	[['x', 75.9462058544159]]	2.0	seen	False	True	1.4262058544158975	2.978610038757324	1.0	16.0	1619025672.3886	False		False	0.0	8.94920015335083	2.0
03	ses-001	18	images_fmri/milkshake/milkshake_03s.jpg	unseen	4791	400	3	None	1003.0	14283.0	3.0	unseen-within	1	1	78.99	2.98	True	True	78.96643495559692	81.95231914520264	[['a', 80.09072089195251]]	-2.0	unseen	False	True	1.1007208919525198	2.985884189605713	1.0	17.0	1619025676.8532	False		False			
03	ses-001	19	images_fmri/broccoli/broccoli_03s.jpg	unseen	1011	85	3	None	202.0	3050.0	3.0	unseen-between	1	1	83.46	2.98	False	True	83.43397498130798	86.41689205169678	[['a', 85.42022180557251]]	1.0	seen	True	False	1.960221805572516	2.982917070388794	1.0	18.0	1619025681.3207	False		False			
03	ses-001	20	images_fmri/blowtorch/blowtorch_03s.jpg	seen	759	64	3	None	149.0	2276.0	3.0	seen-within	2	1	87.92999999999998	2.98	True	False	87.90186214447021	90.88051795959473	[['x', 89.18544793128967]]	2.0	seen	False	True	1.2554479312896945	2.978655815124512	1.0	19.0	1619025685.7886	False		False	0.0	17.870499849319458	4.0
03	ses-001	21	images_fmri/knot/knot_03s.jpg	seen	4167	348	3	None	884.0	12656.0	3.0	seen-within	2	1	92.4	2.98	False	False	92.38321113586426	95.3504729270935	[['x', 93.45331382751465]]	2.0	seen	False	True	1.0533138275146428	2.967261791229248	1.0	20.0	1619025690.2700	False		False	0.0	35.76419997215271	8.0
03	ses-001	22	images_fmri/calculator/calculator_03s.jpg	unseen	1251	105	3	None	241.0	3573.0	3.0	unseen-within	1	1	96.87	2.98	True	True	96.8507161140442	99.8352029323578	[['a', 97.98611402511597]]	-2.0	unseen	False	True	1.1161140251159622	2.984486818313598	1.0	21.0	1619025694.7375	False		False			
03	ses-001	23	images_fmri/knife/knife_03s.jpg	unseen	4155	347	3	None	880.0	12593.0	3.0	unseen-within	1	1	101.34	2.98	True	True	101.31750893592834	104.2961609363556	[['a', 102.61921381950378]]	-2.0	unseen	False	True	1.2792138195037808	2.978652000427246	1.0	22.0	1619025699.2043	False		False			
03	ses-001	24	images_fmri/needle/needle_03s.jpg	unseen	5043	421	3	None	1056.0	15031.0	3.0	unseen-within	1	1	105.81	2.98	True	True	105.78467893600464	108.7669780254364	[['a', 106.83459281921387]]	-2.0	unseen	False	True	1.024592819213865	2.9822990894317627	1.0	23.0	1619025703.6714	False		False			
03	ses-001	25	images_fmri/calculator/calculator_03s.jpg	seen	1251	105	3	None	241.0	3573.0	3.0	seen-within	2	1	110.28	2.98	True	False	110.26623010635376	113.23388695716858	[['x', 111.28684687614441]]	2.0	seen	False	True	1.006846876144408	2.96765685081482	1.0	24.0	1619025708.1530	False		False	0.0	13.415500164031982	3.0
03	ses-001	26	images_fmri/spider/spider_03s.jpg	unseen	7059	589	3	None	1514.0	21407.0	3.0	unseen-within	1	1	114.75	2.98	True	True	114.73476195335388	117.71636295318604	[['a', 115.83561682701111]]	-2.0	unseen	False	True	1.0856168270111084	2.9816009998321533	1.0	25.0	1619025712.6215	False		False			
03	ses-001	27	images_fmri/ruler/ruler_03s.jpg	unseen	6399	534	3	None	1342.0	19084.0	3.0	unseen-between	1	1	119.22	2.98	True	False	119.20014810562134	122.1790931224823	[['a', 120.5090639591217]]	-2.0	unseen	False	True	1.2890639591217052	2.978945016860962	1.0	26.0	1619025717.0869	False		False			
03	ses-001	28	images_fmri/elbow/elbow_03s.jpg	unseen	2751	230	3	None	553.0	8019.0	3.0	unseen-within	1	1	123.69	2.98	True	False	123.66240310668944	126.64655995368958	[['a', 124.81506991386414]]	-2.0	unseen	False	True	1.125069913864138	2.984156847000122	1.0	27.0	1619025721.5492	False		False			
03	ses-001	29	images_fmri/flower/flower_03s.jpg	unseen	3027	253	3	None	620.0	8940.0	3.0	unseen-between	1	1	128.16	2.98	False	True	128.13018012046814	131.1164801120758	[['y', 129.0909469127655]]	-2.0	unseen	False	True	0.9309469127655065	2.986299991607666	1.0	28.0	1619025726.0170	False		False			
03	ses-001	30	images_fmri/paintbrush/paintbrush_03s.jpg	unseen	5259	439	3	None	1098.0	15630.0	3.0	unseen-within	1	1	132.63	2.98	False	False	132.61586713790894	135.5829770565033	[['y', 133.52362298965454]]	-2.0	unseen	False	True	0.8936229896545456	2.9671099185943604	1.0	29.0	1619025730.5026	False		False			
03	ses-001	31	images_fmri/paintbrush/paintbrush_03s.jpg	seen	5259	439	3	None	1098.0	15630.0	3.0	seen-within	2	1	137.1	2.98	True	True	137.0840699672699	140.06199312210083	[['b', 138.29203701019287]]	2.0	seen	False	True	1.1920370101928768	2.9779231548309326	1.0	30.0	1619025734.9708	False		False	0.0	4.468199968338013	1.0
03	ses-001	32	images_fmri/crouton/crouton_03s.jpg	seen	2211	185	3	None	446.0	6452.0	3.0	seen-within	2	1	141.57	2.98	True	True	141.55054903030396	144.52948212623596	[['b', 143.0397469997406]]	2.0	seen	False	True	1.4697469997406074	2.978933095932007	1.0	31.0	1619025739.4373	False		False	0.0	129.63389992713928	29.0
03	ses-001	33	images_fmri/tongs/tongs_03s.jpg	seen	7803	651	3	None	1675.0	23644.0	3.0	seen-within	2	1	146.04	2.98	True	False	146.01801109313965	149.00112915039062	[['x', 147.25980496406555]]	2.0	seen	False	True	1.2198049640655595	2.983118057250977	1.0	32.0	1619025743.9048	False		False	0.0	102.81480002403259	23.0
03	ses-001	34	images_fmri/avocado/avocado_03s.jpg	unseen	243	21	3	None	44.0	606.0	3.0	unseen-within	1	1	150.51	2.98	True	True	150.4806261062622	153.46639013290405	[['a', 151.75266289710999]]	-2.0	unseen	False	True	1.2426628971099944	2.9857640266418457	1.0	33.0	1619025748.3674	False		False			
03	ses-001	35	images_fmri/rat/rat_03s.jpg	unseen	6147	513	3	None	1286.0	18303.0	3.0	unseen-within	1	1	154.98	2.98	False	False	154.96561908721924	157.92796301841736	[['y', 156.00476503372192]]	-2.0	unseen	False	True	1.024765033721934	2.96234393119812	1.0	34.0	1619025752.8524	False		False			
03	ses-001	36	images_fmri/scoreboard/scoreboard_03s.jpg	unseen	6531	545	3	None	1384.0	19653.0	3.0	unseen-within	1	1	159.45	2.98	True	False	159.4336290359497	162.41190814971924	[['a', 160.73071193695068]]	-2.0	unseen	False	True	1.280711936950695	2.9782791137695312	1.0	35.0	1619025757.3204	False		False			
03	ses-001	37	images_fmri/spider/spider_03s.jpg	seen	7059	589	3	None	1514.0	21407.0	3.0	seen-within	2	1	163.92	2.98	True	False	163.9007329940796	166.87800693511963	[['y', 165.7694640159607]]	1.0	seen	False	False	1.8494640159607056	2.977273941040039	1.0	36.0	1619025761.7875	False		False	0.0	49.16599988937378	11.0
03	ses-001	38	images_fmri/stiletto/stiletto_03s.jpg	unseen	7239	604	3	None	1555.0	21962.0	3.0	unseen-between	1	1	168.39	2.98	False	True	168.36260294914246	171.3457989692688	[['y', 169.28069186210632]]	-2.0	unseen	False	True	0.8906918621063369	2.9831960201263428	1.0	37.0	1619025766.2494	False		False			
03	ses-001	39	images_fmri/rat/rat_03s.jpg	seen	6147	513	3	None	1286.0	18303.0	3.0	seen-within	2	1	172.86	2.98	False	False	172.82842302322388	175.81217193603516	[['x', 174.07578492164612]]	2.0	seen	False	True	1.2157849216461043	2.9837489128112797	1.0	38.0	1619025770.7152	False		False	0.0	17.862799882888794	4.0
03	ses-001	40	images_fmri/sword/sword_03s.jpg	unseen	7419	619	3	None	1603.0	22646.0	3.0	unseen-between	1	1	177.32999999999996	2.98	False	True	177.31193208694458	180.28095197677607	[['y', 178.6306848526001]]	-2.0	unseen	False	True	1.300684852600142	2.969019889831543	1.0	39.0	1619025775.1987	False		False			
03	ses-001	41	images_fmri/pineapple/pineapple_03n.jpg	seen	5619	469	3	None	1183.0	16831.0	3.0	seen-within	2	1	181.8	2.98	True	False	181.78274703025815	184.7621829509735	[['x', 183.15634298324585]]	2.0	seen	False	True	1.3563429832458382	2.979435920715332	1.0	40.0	1619025779.6695	False		False	0.0	129.63410019874573	29.0
03	ses-001	42	images_fmri/kale/kale_03s.jpg	seen	4059	339	3	None	861.0	12308.0	3.0	seen-within	2	1	186.27	2.98	True	True	186.24861311912537	189.2272491455078	[['b', 187.5204198360443]]	2.0	seen	False	True	1.2504198360443013	2.9786360263824463	1.0	41.0	1619025784.1354	False		False	0.0	156.45040011405945	35.0
03	ses-001	43	images_fmri/scoreboard/scoreboard_03s.jpg	seen	6531	545	3	None	1384.0	19653.0	3.0	seen-within	2	1	190.74	2.98	False	True	190.71589612960813	193.6979911327362	[['b', 191.88765692710876]]	2.0	seen	False	True	1.1476569271087556	2.982095003128052	1.0	42.0	1619025788.6027	False		False	0.0	31.282299995422363	7.0
03	ses-001	44	images_fmri/plum/plum_03s.jpg	seen	5739	479	3	None	1204.0	17107.0	3.0	seen-within	2	1	195.21	2.98	True	False	195.1825270652771	198.16160798072812	[['a', 196.49605989456177]]	-2.0	unseen	True	True	1.2860598945617596	2.97908091545105	1.0	43.0	1619025793.0693	False		False	0.0	192.19899988174438	43.0
03	ses-001	45	images_fmri/clarinet/clarinet_03s.jpg	unseen	1779	149	3	None	351.0	5077.0	3.0	unseen-within	1	1	199.68	2.98	True	True	199.66154313087463	202.62789392471316	[['a', 201.15912890434265]]	-2.0	unseen	False	True	1.4791289043426443	2.966350793838501	1.0	44.0	1619025797.5483	False		False			
03	ses-001	46	images_fmri/needle/needle_03s.jpg	seen	5043	421	3	None	1056.0	15031.0	3.0	seen-within	2	1	204.15	2.98	False	False	204.1275360584259	207.11029696464536	[['x', 205.3041009902954]]	2.0	seen	False	True	1.1541009902954045	2.9827609062194824	1.0	45.0	1619025802.0143	False		False	0.0	98.3429000377655	22.0
03	ses-001	47	images_fmri/milkshake/milkshake_03s.jpg	seen	4791	400	3	None	1003.0	14283.0	3.0	seen-within	2	1	208.62	2.98	False	False	208.5943729877472	211.5766830444336	[['x', 209.51800203323364]]	2.0	seen	False	True	0.898002033233638	2.9823100566864014	1.0	46.0	1619025806.4811	False		False	0.0	129.6279001235962	29.0
03	ses-001	48	images_fmri/grapefruit/grapefruit_03s.jpg	unseen	3399	284	3	None	704.0	10090.0	3.0	unseen-between	1	1	213.09	2.98	True	False	213.06082701683044	216.04346013069156	[['a', 214.87320685386658]]	-2.0	unseen	False	True	1.7832068538665735	2.982633113861084	1.0	47.0	1619025810.9476	False		False			
03	ses-001	49	images_fmri/applesauce/applesauce_03s.jpg	unseen	195	17	3	None	33.0	460.0	3.0	unseen-within	1	1	217.56	2.98	False	False	217.5274269580841	220.51034903526303	[['y', 218.80119585990906]]	-2.0	unseen	False	True	1.2411958599090551	2.982922077178955	1.0	48.0	1619025815.4142	False		False			
03	ses-001	50	images_fmri/wand/wand_03s.jpg	unseen	8319	694	3	None	1781.0	25106.0	3.0	unseen-within	1	1	222.03	2.98	False	False	222.0108289718628	224.9765911102295	[['a', 224.39616584777832]]	1.0	seen	True	False	2.366165847778319	2.965762138366699	1.0	49.0	1619025819.8976	False		False			
03	ses-001	51	images_fmri/hamburger/hamburger_03s.jpg	unseen	3579	299	3	None	741.0	10621.0	3.0	unseen-within	1	1	226.5	2.98	False	False	226.4803330898285	229.46011996269223	[['y', 227.86636996269226]]	-2.0	unseen	False	True	1.3663699626922607	2.979786872863769	1.0	50.0	1619025824.3671	False		False			
03	ses-001	52	images_fmri/thermostat/thermostat_03s.jpg	unseen	7659	639	3	None	1649.0	23284.0	3.0	unseen-within	1	1	230.97	2.98	False	True	230.94393801689148	233.93159914016724	[['y', 231.9930830001831]]	-2.0	unseen	False	True	1.0230830001831066	2.987661123275757	1.0	51.0	1619025828.8307	False		False			
03	ses-001	53	images_fmri/hamburger/hamburger_03s.jpg	seen	3579	299	3	None	741.0	10621.0	3.0	seen-within	2	1	235.44	2.98	True	True	235.41462206840515	238.39249110221863	[['y', 237.62468099594116]]	1.0	seen	False	False	2.1846809959411644	2.977869033813477	1.0	52.0	1619025833.3014	False		False	0.0	8.934299945831299	2.0
03	ses-001	54	images_fmri/boy/boy_03s.jpg	unseen	927	78	3	None	185.0	2801.0	3.0	unseen-between	1	1	239.91	2.98	False	True	239.8951361179352	242.86163997650144	[['y', 241.47409582138062]]	-2.0	unseen	False	True	1.5640958213806186	2.966503858566284	1.0	53.0	1619025837.7819	False		False			
03	ses-001	55	images_fmri/elbow/elbow_03s.jpg	seen	2751	230	3	None	553.0	8019.0	3.0	seen-within	2	1	244.38	2.98	True	True	244.3645830154419	247.3424689769745	[['b', 245.7250678539276]]	2.0	seen	False	True	1.3450678539276169	2.9778859615325928	1.0	54.0	1619025842.2514	False		False	0.0	120.70219993591309	27.0
03	ses-001	56	images_fmri/barnacle/barnacle_03s.jpg	unseen	399	34	3	None	76.0	1126.0	3.0	unseen-within	1	1	248.85	2.98	True	True	248.8295180797577	251.8088939189911	[['a', 250.23367381095886]]	-2.0	unseen	False	True	1.383673810958868	2.9793758392333984	1.0	55.0	1619025846.7163	False		False			
03	ses-001	57	images_fmri/dress/dress_03s.jpg	unseen	2595	217	3	None	519.0	7529.0	3.0	unseen-between	1	1	253.32	2.98	False	False	253.29729199409485	256.2764251232147	[['y', 254.5390248298645]]	-2.0	unseen	False	True	1.2190248298645088	2.979133129119873	1.0	56.0	1619025851.1841	False		False			
03	ses-001	58	images_fmri/hedge/hedge_03s.jpg	unseen	3711	310	3	None	774.0	11073.0	3.0	unseen-between	1	1	257.79	2.98	False	True	257.7624759674072	260.7425479888916	[['y', 259.2938950061798]]	-2.0	unseen	False	True	1.503895006179789	2.980072021484375	1.0	57.0	1619025855.6492	False		False			
03	ses-001	59	images_fmri/gel/gel_03s.jpg	unseen	3231	270	3	None	670.0	9599.0	3.0	unseen-between	1	1	262.26	2.98	False	True	262.2456591129303	265.2144949436188	[['y', 263.2986810207367]]	-2.0	unseen	False	True	1.0386810207367034	2.968835830688477	1.0	58.0	1619025860.1324	False		False			
03	ses-001	60	images_fmri/lantern/lantern_03s.jpg	seen	4239	354	3	None	896.0	12825.0	3.0	seen-within	2	1	266.73	2.98	True	True	266.70942401885986	269.6919000148773	[['y', 268.3179039955139]]	1.0	seen	False	False	1.5879039955138978	2.982475996017456	1.0	59.0	1619025864.5962	False		False	0.0	245.86050009727478	55.0
