subject	session	TrialNumber	image_path	condition	image_nr	category_nr	exemplar_nr	test_image_nr	things_category_nr	things_image_nr	things_exemplar_nr	subcondition	repetition	run	onset	duration	response_mapping_flip_h	response_mapping_flip_v	onset_flip	offset_flip	keypresses	response	response_txt	error	response_confidence	response_time	duration_flip	ran	order	session_trial_time	atypical	atypical_log	exclude_session	delay_days	delay_seconds	trials_since_lastrep
06	ses-032	1	images_fmri/hotdog/hotdog_02s.jpg	unseen	3842	321	2	None	806.0	11526.0	2.0	unseen-between	1	6	3.0	2.98	False	False	3.0006885710172355	5.9670639503747225	[['y', 5.999225884210318]]	-2.0	unseen	False	True	2.9992258842103183	2.966375379357487	1.0	0.0	3185345.0636370834	False		False			
06	ses-032	2	images_fmri/towel_rack/towel_rack_01b.jpg	seen	7897	659	1	None	1694.0	23898.0	1.0	seen-between	2	6	7.47	2.98	False	True	7.46640082122758	10.450449420139194	[['b', 9.109857728239149]]	2.0	seen	False	True	1.639857728239149	2.984048598911613	1.0	1.0	3185349.5336370836	False		False	7.0	0.0	537.0
06	ses-032	3	images_fmri/computer_screen/computer_screen_01b.jpg	seen	1969	165	1	None	396.0	5690.0	1.0	seen-between	2	6	11.94	2.98	True	True	11.937827285379171	14.918450143188238	[['b', 13.280402956996113]]	2.0	seen	False	True	1.3404029569961136	2.9806228578090668	1.0	2.0	3185354.0036370833	False		False	7.0	0.0	409.0
06	ses-032	4	images_fmri/elbow/elbow_01b.jpg	seen	2749	230	1	None	553.0	8017.0	1.0	seen-between-within	3	6	16.41	2.98	True	True	16.404432171024382	19.386519968044013	[['b', 17.25812645908445]]	2.0	seen	False	True	0.8481264590844511	2.9820877970196307	1.0	3.0	3185358.4736370835	False		False	0.0	1068.4065162003972	158.0
06	ses-032	5	images_fmri/computer_screen/computer_screen_01b.jpg	seen	1969	165	1	None	396.0	5690.0	1.0	seen-between-within	3	6	20.88	2.98	True	False	20.872968931216747	23.85572291724384	[['x', 21.744486426003277]]	2.0	seen	False	True	0.8644864260032783	2.982753986027092	1.0	4.0	3185362.9436370833	False		False	0.0	8.93999999994412	2.0
06	ses-032	6	images_fmri/wheat/wheat_02s.jpg	unseen	8414	702	2	None	1806.0	25441.0	2.0	unseen-within	1	6	25.35	2.98	True	True	25.35539351310581	28.31780507741496	[['a', 26.923317624256015]]	-2.0	unseen	False	True	1.5733176242560134	2.96241156430915	1.0	5.0	3185367.4136370835	False		False			
06	ses-032	7	images_fmri/needle/needle_02s.jpg	unseen	5042	421	2	None	1056.0	15030.0	2.0	unseen-within	1	6	29.82	2.98	True	False	29.822090276982635	32.80101649835706	[['a', 32.59540590411052]]	-2.0	unseen	False	True	2.775405904110521	2.9789262213744223	1.0	6.0	3185371.883637083	False		False			
06	ses-032	8	images_fmri/wheat/wheat_02s.jpg	seen	8414	702	2	None	1806.0	25441.0	2.0	seen-within	2	6	34.29	2.98	True	False	34.28422164916992	37.267536339350045	[['x', 35.25172957032919]]	2.0	seen	False	True	0.9617295703291902	2.983314690180123	1.0	7.0	3185376.3536370834	False		False	0.0	8.93999999994412	2.0
06	ses-032	9	images_fmri/undershirt/undershirt_02s.jpg	unseen	8126	678	2	None	1745.0	24594.0	2.0	unseen-between	1	6	38.76	2.98	False	False	38.75494230305776	41.73406234616414	[['y', 41.63442025240511]]	-2.0	unseen	False	True	2.874420252405109	2.979120043106377	1.0	8.0	3185380.823637083	False		False			
06	ses-032	10	images_fmri/bagel/bagel_02n.jpg	unseen	302	26	2	None	56.0	813.0	2.0	unseen-within	1	6	43.23	2.98	True	True	43.21732937917113	46.20065694022924	[['a', 45.55963617609814]]	-2.0	unseen	False	True	2.329636176098141	2.983327561058104	1.0	9.0	3185385.2936370834	False		False			
06	ses-032	11	images_fmri/acorn/acorn_01b.jpg	seen	1	1	1	None	4.0	43.0	1.0	seen-within-between	3	6	47.7	2.98	False	False	47.70424626022577	50.66716205934063	[['x', 49.37823028629646]]	2.0	seen	False	True	1.6782302862964542	2.962915799114853	1.0	10.0	3185389.7636370836	False		False	7.0	0.0	401.0
06	ses-032	12	images_fmri/stopwatch/stopwatch_01b.jpg	seen	7249	605	1	None	1563.0	22070.0	1.0	seen-between-within	3	6	52.17	2.98	True	False	52.17221958003938	55.15493939537555	[['x', 53.1357467523776]]	2.0	seen	False	True	0.9657467523775978	2.982719815336168	1.0	11.0	3185394.2336370833	False		False	0.0	755.5209792000242	121.0
06	ses-032	13	images_fmri/ruler/ruler_02s.jpg	unseen	6398	534	2	None	1342.0	19083.0	2.0	unseen-between	1	6	56.64	2.98	False	True	56.63808432640508	59.616903882008046	[['y', 59.47617810405791]]	-2.0	unseen	False	True	2.8361781040579075	2.978819555602968	1.0	12.0	3185398.7036370835	False		False			
06	ses-032	14	images_fmri/cashew/cashew_02s.jpg	seen	1454	122	2	None	282.0	4124.0	2.0	seen-within	2	6	61.11	2.98	True	True	61.100215793121606	64.08618680620566	[['b', 61.843410255387425]]	2.0	seen	False	True	0.733410255387426	2.985971013084054	1.0	13.0	3185403.1736370833	False		False	0.0	786.8109792000614	128.0
06	ses-032	15	images_fmri/radish/radish_02s.jpg	unseen	6098	509	2	None	1275.0	18158.0	2.0	unseen-between	1	6	65.58	2.98	False	True	65.56948045315221	68.55011799931526	[['y', 68.40683499816805]]	-2.0	unseen	False	True	2.826834998168053	2.9806375461630523	1.0	14.0	3185407.6436370835	False		False			
06	ses-032	16	images_fmri/bassinet/bassinet_02s.jpg	seen	434	37	2	None	86.0	1268.0	2.0	seen-within	2	6	70.05	2.98	False	True	70.05000374699011	73.02025101333857	[['b', 70.91227798722684]]	2.0	seen	False	True	0.8622779872268467	2.970247266348452	1.0	15.0	3185412.113637083	False		False	0.0	370.7543045999482	59.0
06	ses-032	17	images_fmri/pecan/pecan_02s.jpg	seen	5438	454	2	None	1136.0	16168.0	2.0	seen-within	2	6	74.52	2.98	True	False	74.52054103743285	77.5037219193764	[['x', 75.35572483902797]]	2.0	seen	False	True	0.835724839027975	2.9831808819435537	1.0	16.0	3185416.5836370834	False		False	0.0	384.16430460009724	62.0
06	ses-032	18	images_fmri/wheelchair/wheelchair_01b.jpg	seen	8437	704	1	None	1809.0	25476.0	1.0	seen-within-between	3	6	78.99	2.98	True	True	78.98827883042395	81.9665899220854	[['b', 81.48619885742664]]	2.0	seen	False	True	2.4961988574266485	2.978311091661453	1.0	17.0	3185421.0536370836	False		False	7.0	0.0	500.0
06	ses-032	19	images_fmri/canoe/canoe_02s.jpg	seen	1382	116	2	None	263.0	3862.0	2.0	seen-within	2	6	83.46	2.98	False	False	83.44967515720055	86.43827392812818	[['x', 84.24492975743487]]	2.0	seen	False	True	0.784929757434881	2.988598770927638	1.0	18.0	3185425.5236370834	False		False	0.0	451.214304599911	77.0
06	ses-032	20	images_fmri/iron/iron_02s.jpg	unseen	3950	330	2	None	833.0	11905.0	2.0	unseen-within	1	6	87.92999999999998	2.98	True	False	87.93706574337557	90.89958539837971	[['a', 90.78488206118345]]	-2.0	unseen	False	True	2.854882061183474	2.962519655004144	1.0	19.0	3185429.9936370836	False		False			
06	ses-032	21	images_fmri/rhubarb/rhubarb_01b.jpg	seen	6253	522	1	None	1308.0	18618.0	1.0	seen-between	2	6	92.4	2.98	False	False	92.39938455214724	95.3828017222695	[['a', 95.11056188307703]]	1.0	seen	False	False	2.71056188307702	2.983417170122266	1.0	20.0	3185434.4636370833	False		False	7.0	0.0	379.0
06	ses-032	22	images_fmri/cotton_candy/cotton_candy_01b.jpg	seen	2065	173	1	None	422.0	6064.0	1.0	seen-between	2	6	96.87	2.98	False	True	96.86601250711828	99.84934638626872	[['b', 98.3321627061814]]	2.0	seen	False	True	1.4621627061814024	2.9833338791504502	1.0	21.0	3185438.9336370835	False		False	7.0	0.0	464.0
06	ses-032	23	images_fmri/needle/needle_02s.jpg	seen	5042	421	2	None	1056.0	15030.0	2.0	seen-within	2	6	101.34	2.98	False	False	101.33610978908835	104.32011941401288	[['x', 102.19817472621799]]	2.0	seen	False	True	0.8581747262179817	2.9840096249245107	1.0	22.0	3185443.4036370832	False		False	0.0	71.52000000001863	16.0
06	ses-032	24	images_fmri/pinwheel/pinwheel_02s.jpg	unseen	5642	471	2	None	1186.0	16867.0	2.0	unseen-between	1	6	105.81	2.98	True	False	105.80454535409808	108.78237182507291	[['a', 107.86008305614814]]	-2.0	unseen	False	True	2.05008305614814	2.9778264709748328	1.0	23.0	3185447.8736370835	False		False			
06	ses-032	25	images_fmri/otter/otter_02s.jpg	unseen	5186	433	2	None	1086.0	15454.0	2.0	unseen-between	1	6	110.28	2.98	False	True	110.28235331038012	113.24938233010472	[['y', 113.008596687112]]	-2.0	unseen	False	True	2.7285966871120024	2.9670290197245777	1.0	24.0	3185452.343637083	False		False			
06	ses-032	26	images_fmri/joystick/joystick_01b.jpg	seen	4033	337	1	None	853.0	12200.0	1.0	seen-between-within	3	6	114.75	2.98	True	False	114.7489490103908	117.73244782024994	[['x', 115.78001857921481]]	2.0	seen	False	True	1.030018579214811	2.9834988098591566	1.0	25.0	3185456.8136370834	False		False	0.0	2175.1800343291834	288.0
06	ses-032	27	images_fmri/cardigan/cardigan_02s.jpg	unseen	1418	119	2	None	274.0	4019.0	2.0	unseen-between	1	6	119.22	2.98	False	False	119.22011603601275	122.19880307139827	[['y', 121.35354040097445]]	-2.0	unseen	False	True	2.1335404009744536	2.9786870353855197	1.0	26.0	3185461.2836370836	False		False			
06	ses-032	28	images_fmri/hay/hay_02s.jpg	unseen	3674	307	2	None	762.0	10910.0	2.0	unseen-within	1	6	123.69	2.98	True	True	123.6855873693712	126.66534714214504	[['a', 125.13614238705486]]	-2.0	unseen	False	True	1.4461423870548629	2.979759772773832	1.0	27.0	3185465.7536370833	False		False			
06	ses-032	29	images_fmri/shredder/shredder_01b.jpg	seen	6733	562	1	None	1438.0	20387.0	1.0	seen-between	2	6	128.16	2.98	False	True	128.15143348509446	131.1361753582023	[['a', 131.24802185920998]]	1.0	seen	False	False	3.088021859209988	2.9847418731078506	1.0	28.0	3185470.2236370835	False		False	7.0	0.0	335.0
06	ses-032	30	images_fmri/praying_mantis/praying_mantis_02s.jpg	seen	5930	495	2	None	1239.0	17616.0	2.0	seen-within	2	6	132.63	2.98	False	False	132.63180828699842	135.60266526322812	[['x', 133.52846550708637]]	2.0	seen	False	True	0.898465507086371	2.970856976229697	1.0	29.0	3185474.6936370833	False		False	0.0	281.35430460004136	39.0
06	ses-032	31	images_fmri/sickle/sickle_01b.jpg	seen	6757	564	1	None	1442.0	20444.0	1.0	seen-between-within	3	6	137.1	2.98	True	True	137.10287580126897	140.08466597739607	[['b', 137.9965091110207]]	2.0	seen	False	True	0.8965091110207197	2.981790176127106	1.0	30.0	3185479.1636370835	False		False	0.0	486.9743046001531	85.0
06	ses-032	32	images_fmri/bagel/bagel_02n.jpg	seen	302	26	2	None	56.0	813.0	2.0	seen-within	2	6	141.57	2.98	False	True	141.5688451002352	144.5526569550857	[['b', 142.42665072716773]]	2.0	seen	False	True	0.8566507271677324	2.983811854850501	1.0	31.0	3185483.633637083	False		False	0.0	98.33999999985099	22.0
06	ses-032	33	images_fmri/tuxedo/tuxedo_02s.jpg	unseen	8066	673	2	None	1739.0	24507.0	2.0	unseen-between	1	6	146.04	2.98	False	False	146.03616884117946	149.0148025760427	[['x', 148.32678017625585]]	2.0	seen	True	True	2.28678017625586	2.9786337348632514	1.0	32.0	3185488.1036370834	False		False			
06	ses-032	34	images_fmri/revolver/revolver_01s.jpg	seen	6229	520	1	None	1305.0	18574.0	1.0	seen-between-within	3	6	150.51	2.98	False	False	150.50277724210173	153.4863969073631	[['x', 151.3651130143553]]	2.0	seen	False	True	0.855113014355311	2.983619665261358	1.0	33.0	3185492.573637083	False		False	0.0	415.4543046001345	69.0
06	ses-032	35	images_fmri/odometer/odometer_02s.jpg	unseen	5138	429	2	None	1072.0	15237.0	2.0	unseen-within	1	6	154.98	2.98	False	False	154.9850549250841	157.94782093912363	[['y', 157.31368414405733]]	-2.0	unseen	False	True	2.333684144057344	2.9627660140395164	1.0	34.0	3185497.0436370834	False		False			
06	ses-032	36	images_fmri/paintbrush/paintbrush_02s.jpg	seen	5258	439	2	None	1098.0	15629.0	2.0	seen-within	2	6	159.45	2.98	False	True	159.45116556016728	162.4312650919892	[['b', 160.55282100243494]]	2.0	seen	False	True	1.1028210024349503	2.9800995318219066	1.0	35.0	3185501.5136370836	False		False	0.0	2291.4000343293883	314.0
06	ses-032	37	images_fmri/rug/rug_01b.jpg	seen	6385	533	1	None	1341.0	19068.0	1.0	seen-within-between	3	6	163.92	2.98	True	False	163.91830077813938	166.90174790704623	[['a', 167.22525576129556]]	-2.0	unseen	True	True	3.305255761295569	2.983447128906846	1.0	36.0	3185505.9836370833	False		False	7.0	0.0	423.0
06	ses-032	38	images_fmri/pig/pig_01b.jpg	seen	5569	465	1	None	1171.0	16661.0	1.0	seen-between-within	3	6	168.39	2.98	False	True	168.38105191336945	171.3674504021183	[['b', 169.46855711610988]]	2.0	seen	False	True	1.0785571161098917	2.986398488748818	1.0	37.0	3185510.4536370835	False		False	0.0	1578.2103958358057	222.0
06	ses-032	39	images_fmri/touchpad/touchpad_02s.jpg	seen	7874	657	2	None	1692.0	23871.0	2.0	seen-within	2	6	172.86	2.98	True	True	172.8526389482431	175.83509092405438	[['b', 173.9516353951767]]	2.0	seen	False	True	1.091635395176695	2.982451975811273	1.0	38.0	3185514.9236370833	False		False	0.0	791.2809792002663	129.0
06	ses-032	40	images_fmri/guitar/guitar_01b.jpg	seen	3529	295	1	None	724.0	10382.0	1.0	seen-within-between	3	6	177.32999999999996	2.98	False	False	177.33374311914667	180.2974398783408	[['x', 179.70328766014427]]	2.0	seen	False	True	2.373287660144314	2.963696759194136	1.0	39.0	3185519.3936370835	False		False	7.0	0.0	461.0
06	ses-032	41	images_fmri/shredder/shredder_01b.jpg	seen	6733	562	1	None	1438.0	20387.0	1.0	seen-between-within	3	6	181.8	2.98	False	True	181.80028684297577	184.7847989234142	[['b', 182.64666474424303]]	2.0	seen	False	True	0.8466647442430144	2.984512080438435	1.0	40.0	3185523.863637083	False		False	0.0	53.639999999664724	12.0
06	ses-032	42	images_fmri/hood/hood_02s.jpg	unseen	3806	318	2	None	792.0	11328.0	2.0	unseen-between	1	6	186.27	2.98	False	False	186.2682085172273	189.2473424132913	[['y', 188.23392389714718]]	-2.0	unseen	False	True	1.9639238971471684	2.979133896064013	1.0	41.0	3185528.3336370834	False		False			
06	ses-032	43	images_fmri/dollhouse/dollhouse_01b.jpg	seen	2473	207	1	None	501.0	7234.0	1.0	seen-within-between	3	6	190.74	2.98	True	True	190.73460963508117	193.7136833863333	[['b', 191.98146434500813]]	2.0	seen	False	True	1.2414643450081255	2.979073751252145	1.0	42.0	3185532.8036370836	False		False	7.0	0.0	408.0
06	ses-032	44	images_fmri/jam/jam_02s.jpg	unseen	3974	332	2	None	840.0	12006.0	2.0	unseen-between	1	6	195.21	2.98	False	False	195.20151401124892	198.1801701360382	[['y', 197.80294113839045]]	-2.0	unseen	False	True	2.592941138390444	2.978656124789268	1.0	43.0	3185537.2736370834	False		False			
06	ses-032	45	images_fmri/banner/banner_02s.jpg	unseen	386	33	2	None	71.0	1047.0	2.0	unseen-between	1	6	199.68	2.98	False	True	199.68015957204625	202.6468148510903	[['y', 202.17103293305263]]	-2.0	unseen	False	True	2.4910329330526224	2.966655279044062	1.0	44.0	3185541.7436370836	False		False			
06	ses-032	46	images_fmri/spinach/spinach_01b.jpg	seen	7069	590	1	None	1516.0	21432.0	1.0	seen-between-within	3	6	204.15	2.98	True	False	204.14670591708276	207.13464292231947	[['x', 204.98701945599169]]	2.0	seen	False	True	0.8370194559916797	2.987937005236745	1.0	45.0	3185546.2136370833	False		False	0.0	531.6743045998737	95.0
06	ses-032	47	images_fmri/meatball/meatball_02s.jpg	unseen	4730	395	2	None	990.0	14097.0	2.0	unseen-between	1	6	208.62	2.98	True	False	208.61757363099605	211.59650781098756	[['y', 211.47211950225756]]	1.0	seen	True	False	2.852119502257551	2.978934179991484	1.0	46.0	3185550.6836370835	False		False			
06	ses-032	48	images_fmri/mosquito/mosquito_01b.jpg	seen	4885	408	1	None	1021.0	14541.0	1.0	seen-between	2	6	213.09	2.98	False	True	213.079844342079	216.0665761162527	[['y', 216.0938117862679]]	-2.0	unseen	True	True	3.003811786267903	2.986731774173677	1.0	47.0	3185555.1536370832	False		False	7.0	0.0	411.0
06	ses-032	49	images_fmri/towel_rack/towel_rack_01b.jpg	seen	7897	659	1	None	1694.0	23898.0	1.0	seen-between-within	3	6	217.56	2.98	True	True	217.56328049814329	220.5343291889876	[['b', 218.45036499435082]]	2.0	seen	False	True	0.8903649943508185	2.971048690844327	1.0	48.0	3185559.6236370835	False		False	0.0	210.089999999851	47.0
06	ses-032	50	images_fmri/rhubarb/rhubarb_01b.jpg	seen	6253	522	1	None	1308.0	18618.0	1.0	seen-between-within	3	6	222.03	2.98	True	True	222.0345548139885	225.0008865534328	[['b', 223.1342551582493]]	2.0	seen	False	True	1.1042551582492877	2.9663317394442856	1.0	49.0	3185564.093637083	False		False	0.0	129.62999999988824	29.0
06	ses-032	51	images_fmri/lime/lime_02s.jpg	unseen	4394	367	2	None	931.0	13292.0	2.0	unseen-between	1	6	226.5	2.98	False	True	226.50044138124213	229.47960975114256	[['y', 228.11216914840043]]	-2.0	unseen	False	True	1.612169148400426	2.979168369900435	1.0	50.0	3185568.5636370834	False		False			
06	ses-032	52	images_fmri/scissors/scissors_01s.jpg	seen	6505	543	1	None	1380.0	19595.0	1.0	seen-between-within	3	6	230.97	2.98	True	False	230.9674906739965	233.94614730542528	[['x', 232.14604728342965]]	2.0	seen	False	True	1.1760472834296536	2.9786566314287484	1.0	51.0	3185573.0336370836	False		False	0.0	1305.3165162005462	211.0
06	ses-032	53	images_fmri/cotton_candy/cotton_candy_01b.jpg	seen	2065	173	1	None	422.0	6064.0	1.0	seen-between-within	3	6	235.44	2.98	True	True	235.43276940332728	238.41261022537947	[['b', 236.22284798510373]]	2.0	seen	False	True	0.7828479851037287	2.9798408220522106	1.0	52.0	3185577.5036370833	False		False	0.0	138.56999999983236	31.0
06	ses-032	54	images_fmri/iron/iron_02s.jpg	seen	3950	330	2	None	833.0	11905.0	2.0	seen-within	2	6	239.91	2.98	True	False	239.9161562132649	242.88354232208803	[['x', 240.69901015330106]]	2.0	seen	False	True	0.7890101533010636	2.9673861088231206	1.0	53.0	3185581.9736370835	False		False	0.0	151.97999999998137	34.0
06	ses-032	55	images_fmri/mosquito/mosquito_01b.jpg	seen	4885	408	1	None	1021.0	14541.0	1.0	seen-between-within	3	6	244.38	2.98	False	False	244.38297925097868	247.36236957507208	[['x', 246.60153254307806]]	2.0	seen	False	True	2.221532543078069	2.979390324093401	1.0	54.0	3185586.4436370833	False		False	0.0	31.290000000037253	7.0
06	ses-032	56	images_fmri/hay/hay_02s.jpg	seen	3674	307	2	None	762.0	10910.0	2.0	seen-within	2	6	248.85	2.98	True	False	248.8497102684341	251.8320416510105	[['x', 249.5038409549743]]	2.0	seen	False	True	0.6538409549742994	2.982331382576376	1.0	55.0	3185590.9136370835	False		False	0.0	125.16000000014901	28.0
06	ses-032	57	images_fmri/odometer/odometer_02s.jpg	seen	5138	429	2	None	1072.0	15237.0	2.0	seen-within	2	6	253.32	2.98	False	True	253.31658363435417	256.29549493221566	[['x', 254.0247484659776], ['b', 254.5687177903019]]	-1.0	unseen	True	False	0.704748465977616	2.9789112978614867	1.0	56.0	3185595.383637083	False		False	0.0	98.33999999985099	22.0
06	ses-032	58	images_fmri/garbage/garbage_02s.jpg	seen	3158	264	2	None	656.0	9420.0	2.0	seen-within	2	6	257.79	2.98	True	False	257.78436290239915	260.7680768673308	[['x', 258.7720312741585]]	2.0	seen	False	True	0.9820312741584872	2.983713964931667	1.0	57.0	3185599.8536370834	False		False	0.0	589.784304600209	108.0
06	ses-032	59	images_fmri/fudge/fudge_01b.jpg	seen	3133	262	1	None	648.0	9321.0	1.0	seen-within-between	3	6	262.26	2.98	True	True	262.264398928266	265.23301717219874	[['b', 263.3670826293528]]	2.0	seen	False	True	1.107082629352817	2.968618243932724	1.0	58.0	3185604.323637083	False		False	7.0	0.0	479.0
06	ses-032	60	images_fmri/pencil_sharpener/pencil_sharpener_02s.jpg	unseen	5474	457	2	None	1144.0	16270.0	2.0	unseen-between	1	6	266.73	2.98	True	True	266.7316685183905	269.7120395721868	[['a', 268.60142151638865]]	-2.0	unseen	False	True	1.8714215163886363	2.980371053796261	1.0	59.0	3185608.7936370834	False		False			
