subject	session	TrialNumber	image_path	condition	image_nr	category_nr	exemplar_nr	test_image_nr	things_category_nr	things_image_nr	things_exemplar_nr	subcondition	repetition	run	onset	duration	response_mapping_flip_h	response_mapping_flip_v	onset_flip	offset_flip	keypresses	response	response_txt	error	response_confidence	response_time	duration_flip	ran	order	session_trial_time	atypical	atypical_log	exclude_session	delay_days	delay_seconds	trials_since_lastrep
06	ses-032	1	images_fmri/giraffe/giraffe_02s.jpg	unseen	3242	271	2	None	676.0	9672.0	2.0	unseen-within	1	1	3.0	2.98	False	True	2.9993222639895976	5.981213669292629	[['b', 5.33753591729328]]	2.0	seen	True	True	2.3375359172932804	2.981891405303031	1.0	0.0	3183116.243602754	False		False			
06	ses-032	2	images_fmri/bread/bread_02s.jpg	unseen	974	82	2	None	195.0	2945.0	2.0	unseen-within	1	1	7.47	2.98	True	False	7.469375615008175	10.447767110075802	[['a', 10.194341702852398]]	-2.0	unseen	False	True	2.7243417028523984	2.9783914950676262	1.0	1.0	3183120.7136027543	False		False			
06	ses-032	3	images_fmri/coat/coat_01b.jpg	seen	1837	154	1	None	370.0	5336.0	1.0	seen-within-between	3	1	11.94	2.98	False	True	11.934273564256728	14.91531371185556	[['b', 14.796246861107647]]	2.0	seen	False	True	2.856246861107648	2.981040147598833	1.0	2.0	3183125.183602754	False		False	7.0	0.0	60.0
06	ses-032	4	images_fmri/giraffe/giraffe_02s.jpg	seen	3242	271	2	None	676.0	9672.0	2.0	seen-within	2	1	16.41	2.98	True	True	16.400852523278445	19.383925891947	[['b', 17.23191769886762]]	2.0	seen	False	True	0.8219176988676189	2.983073368668556	1.0	3.0	3183129.653602754	False		False	0.0	13.410000000149012	3.0
06	ses-032	5	images_fmri/starfish/starfish_01b.jpg	seen	7189	600	1	None	1542.0	21779.0	1.0	seen-between	2	1	20.88	2.98	False	False	20.8825252992101	23.850223355926573	[['y', 23.03707038005814]]	-2.0	unseen	True	True	2.157070380058141	2.967698056716472	1.0	4.0	3183134.123602754	False		False	7.0	0.0	108.0
06	ses-032	6	images_fmri/cufflink/cufflink_02s.jpg	unseen	2282	191	2	None	459.0	6639.0	2.0	unseen-within	1	1	25.35	2.98	False	False	25.34756453288719	28.33101583784446	[['y', 27.992822451982647]]	-2.0	unseen	False	True	2.6428224519826458	2.98345130495727	1.0	5.0	3183138.593602754	False		False			
06	ses-032	7	images_fmri/hamburger/hamburger_01s.jpg	seen	3577	299	1	None	741.0	10619.0	1.0	seen-between	2	1	29.82	2.98	True	False	29.81669363519177	32.79998042015359	[['x', 32.042239343281835]]	2.0	seen	False	True	2.222239343281835	2.98328678496182	1.0	6.0	3183143.063602754	False		False	7.0	0.0	122.0
06	ses-032	8	images_fmri/bowl/bowl_01b.jpg	seen	889	75	1	None	178.0	2702.0	1.0	seen-between	2	1	34.29	2.98	True	True	34.28046212904155	37.2638295260258	[['a', 36.76624590018764], ['x', 37.55469123786315]]	-2.0	unseen	True	True	2.4762459001876422	2.9833673969842494	1.0	7.0	3183147.533602754	False		False	7.0	0.0	107.0
06	ses-032	9	images_fmri/chalk/chalk_02s.jpg	unseen	1562	131	2	None	303.0	4412.0	2.0	unseen-within	1	1	38.76	2.98	True	False	38.74778286088258	41.73042307514697	[['a', 40.3614391698502]]	-2.0	unseen	False	True	1.6014391698502024	2.982640214264393	1.0	8.0	3183152.003602754	False		False			
06	ses-032	10	images_fmri/pothole/pothole_01b.jpg	seen	5905	493	1	None	1234.0	17546.0	1.0	seen-within-between	3	1	43.23	2.98	False	True	43.23380395723507	46.19680886389688	[['b', 44.87590408325195]]	2.0	seen	False	True	1.6459040832519565	2.9630049066618085	1.0	9.0	3183156.473602754	False		False	7.0	0.0	141.0
06	ses-032	11	images_fmri/girl/girl_01b.jpg	seen	3253	272	1	None	677.0	9695.0	1.0	seen-within-between	3	1	47.7	2.98	True	False	47.70167983323336	50.68026522314176	[['x', 49.53277967683971]]	2.0	seen	False	True	1.8327796768397064	2.978585389908403	1.0	10.0	3183160.9436027543	False		False	7.0	0.0	23.0
06	ses-032	12	images_fmri/corkscrew/corkscrew_02s.jpg	unseen	2042	171	2	None	412.0	5916.0	2.0	unseen-within	1	1	52.17	2.98	False	True	52.16329804807901	55.146754283923656	[['y', 53.94623241201043]]	-2.0	unseen	False	True	1.7762324120104296	2.983456235844642	1.0	11.0	3183165.413602754	False		False			
06	ses-032	13	images_fmri/hamburger/hamburger_01s.jpg	seen	3577	299	1	None	741.0	10619.0	1.0	seen-between-within	3	1	56.64	2.98	False	True	56.63265800010413	59.61307184025645	[['b', 57.767290470190346]]	2.0	seen	False	True	1.1272904701903457	2.9804138401523232	1.0	12.0	3183169.883602754	False		False	0.0	26.820000000298023	6.0
06	ses-032	14	images_fmri/asparagus/asparagus_01b.jpg	seen	229	20	1	None	43.0	592.0	1.0	seen-within-between	3	1	61.11	2.98	True	True	61.116879844106734	64.08047133916989	[['y', 62.94049644423649]]	1.0	seen	False	False	1.830496444236488	2.963591495063156	1.0	13.0	3183174.353602754	False		False	7.0	0.0	121.0
06	ses-032	15	images_fmri/pill/pill_01b.jpg	seen	5593	467	1	None	1175.0	16714.0	1.0	seen-within-between	3	1	65.58	2.98	False	True	65.57969520101324	68.5491906479001	[['b', 67.7646786570549]]	2.0	seen	False	True	2.184678657054903	2.9694954468868677	1.0	14.0	3183178.823602754	False		False	7.0	0.0	63.0
06	ses-032	16	images_fmri/couch/couch_01b.jpg	seen	2077	174	1	None	423.0	6077.0	1.0	seen-within-between	3	1	70.05	2.98	False	True	70.04893866926432	73.02977714501321	[['b', 71.24091136688367]]	2.0	seen	False	True	1.1909113668836682	2.9808384757488966	1.0	15.0	3183183.293602754	False		False	7.0	0.0	52.0
06	ses-032	17	images_fmri/drain/drain_02s.jpg	unseen	2570	215	2	None	516.0	7485.0	2.0	unseen-within	1	1	74.52	2.98	True	True	74.5169613910839	77.49624363100156	[['a', 77.33615494519472]]	-2.0	unseen	False	True	2.816154945194725	2.9792822399176657	1.0	16.0	3183187.763602754	False		False			
06	ses-032	18	images_fmri/corkscrew/corkscrew_02s.jpg	seen	2042	171	2	None	412.0	5916.0	2.0	seen-within	2	1	78.99	2.98	True	True	78.97928296495229	81.96278115129098	[['b', 80.00522280624136]]	2.0	seen	False	True	1.0152228062413684	2.983498186338693	1.0	17.0	3183192.2336027543	False		False	0.0	26.820000000298023	6.0
06	ses-032	19	images_fmri/eyedropper/eyedropper_01b.jpg	seen	2809	235	1	None	567.0	8208.0	1.0	seen-between	2	1	83.46	2.98	False	False	83.46604472398758	86.42985315900296	[['x', 85.49774681497365]]	2.0	seen	False	True	2.0377468149736586	2.9638084350153804	1.0	18.0	3183196.703602754	False		False	7.0	0.0	228.0
06	ses-032	20	images_fmri/graffiti/graffiti_01b.jpg	seen	3337	279	1	None	698.0	9989.0	1.0	seen-within-between	3	1	87.92999999999998	2.98	True	True	87.93311219802126	90.91258456325158	[['a', 90.487276264932]]	-2.0	unseen	True	True	2.557276264932028	2.979472365230322	1.0	19.0	3183201.1736027543	False		False	7.0	0.0	235.0
06	ses-032	21	images_fmri/christmas_tree/christmas_tree_01b.jpg	seen	1753	147	1	None	342.0	4933.0	1.0	seen-between	2	1	92.4	2.98	False	False	92.39834102988245	95.37890629796313	[['y', 94.6324542928487]]	-2.0	unseen	True	True	2.232454292848701	2.9805652680806816	1.0	20.0	3183205.643602754	False		False	7.0	0.0	189.0
06	ses-032	22	images_fmri/paintbrush/paintbrush_02s.jpg	unseen	5258	439	2	None	1098.0	15629.0	2.0	unseen-within	1	1	96.87	2.98	False	True	96.86209428403528	99.84813086502254	[['y', 98.9446156648919]]	-2.0	unseen	False	True	2.074615664891894	2.986036580987274	1.0	21.0	3183210.113602754	False		False			
06	ses-032	23	images_fmri/mandolin/mandolin_02s.jpg	unseen	4586	383	2	None	966.0	13763.0	2.0	unseen-between	1	1	101.34	2.98	False	False	101.32860212912784	104.31509015522896	[['y', 103.2248190138489]]	-2.0	unseen	False	True	1.8848190138488972	2.986488026101142	1.0	22.0	3183214.583602754	False		False			
06	ses-032	24	images_fmri/glass/glass_02s.jpg	unseen	3266	273	2	None	678.0	9709.0	2.0	unseen-between	1	1	105.81	2.98	False	True	105.81200228910892	108.78171041700988	[['y', 107.47154871886596]]	-2.0	unseen	False	True	1.6615487188659586	2.969708127900958	1.0	23.0	3183219.053602754	False		False			
06	ses-032	25	images_fmri/buggy/buggy_02s.jpg	unseen	1082	91	2	None	214.0	3211.0	2.0	unseen-within	1	1	110.28	2.98	False	True	110.28330973628908	113.2623671879992	[['y', 112.73347789607942]]	-2.0	unseen	False	True	2.45347789607942	2.979057451710105	1.0	24.0	3183223.523602754	False		False			
06	ses-032	26	images_fmri/blueberry/blueberry_01b.jpg	seen	769	65	1	None	150.0	2288.0	1.0	seen-between	2	1	114.75	2.98	False	False	114.74823045311496	117.72841668920591	[['y', 116.53970362525433]]	-2.0	unseen	True	True	1.789703625254333	2.980186236090958	1.0	25.0	3183227.993602754	False		False	7.0	0.0	280.0
06	ses-032	27	images_fmri/brush/brush_02s.jpg	unseen	1046	88	2	None	206.0	3105.0	2.0	unseen-within	1	1	119.22	2.98	False	True	119.21185812726615	122.194728565868	[['x', 121.52349114511162]]	-1.0	unseen	False	False	2.3034911451116216	2.9828704386018217	1.0	26.0	3183232.4636027543	False		False			
06	ses-032	28	images_fmri/marshmallow/marshmallow_02s.jpg	unseen	4646	388	2	None	978.0	13935.0	2.0	unseen-within	1	1	123.69	2.98	True	False	123.67817220184952	126.66432480327784	[['a', 125.64944230020046]]	-2.0	unseen	False	True	1.9594423002004648	2.98615260142833	1.0	27.0	3183236.933602754	False		False			
06	ses-032	29	images_fmri/melon/melon_01b.jpg	seen	4741	396	1	None	995.0	14163.0	1.0	seen-between	2	1	128.16	2.98	False	False	128.16146349022165	131.12790862796828	[['x', 130.4844894488342]]	2.0	seen	False	True	2.324489448834214	2.966445137746632	1.0	28.0	3183241.403602754	False		False	7.0	0.0	266.0
06	ses-032	30	images_fmri/wheelbarrow/wheelbarrow_02s.jpg	unseen	8426	703	2	None	1808.0	25465.0	2.0	unseen-within	1	1	132.63	2.98	False	True	132.62822461221367	135.6112882271409	[['y', 135.36544800829142]]	-2.0	unseen	False	True	2.735448008291428	2.9830636149272323	1.0	29.0	3183245.873602754	False		False			
06	ses-032	31	images_fmri/guardrail/guardrail_01b.jpg	seen	3505	293	1	None	721.0	10336.0	1.0	seen-between	2	1	137.1	2.98	False	False	137.09436235716566	140.0778111028485	[['x', 138.92440298898146]]	2.0	seen	False	True	1.8244029889814608	2.983448745682836	1.0	30.0	3183250.343602754	False		False	7.0	0.0	202.0
06	ses-032	32	images_fmri/hanger/hanger_01b.jpg	seen	3649	305	1	None	752.0	10758.0	1.0	seen-within-between	3	1	141.57	2.98	True	False	141.56089077703655	144.54437830112877	[['x', 142.87343418598175]]	2.0	seen	False	True	1.3034341859817573	2.9834875240921974	1.0	31.0	3183254.813602754	False		False	7.0	0.0	194.0
06	ses-032	33	images_fmri/rice/rice_01b.jpg	seen	6277	524	1	None	1310.0	18646.0	1.0	seen-between	2	1	146.04	2.98	True	False	146.0318286451511	149.01069379597902	[['a', 148.60947058396414]]	-2.0	unseen	True	True	2.569470583964147	2.9788651508279145	1.0	32.0	3183259.283602754	False		False	7.0	0.0	74.0
06	ses-032	34	images_fmri/brush/brush_02s.jpg	seen	1046	88	2	None	206.0	3105.0	2.0	seen-within	2	1	150.51	2.98	False	False	150.51066920999438	153.4771693139337	[['x', 151.35814184695482]]	2.0	seen	False	True	0.8481418469548316	2.9665001039393246	1.0	33.0	3183263.753602754	False		False	0.0	31.28999999957159	7.0
06	ses-032	35	images_fmri/wig/wig_01s.jpg	seen	8473	707	1	None	1817.0	25580.0	1.0	seen-between	2	1	154.98	2.98	True	True	154.9816753519699	157.96064953226596	[['b', 156.82893505319953]]	2.0	seen	False	True	1.84893505319954	2.9789741802960634	1.0	34.0	3183268.223602754	False		False	7.0	0.0	354.0
06	ses-032	36	images_fmri/rat/rat_01b.jpg	seen	6145	513	1	None	1286.0	18301.0	1.0	seen-between	2	1	159.45	2.98	False	False	159.44374668085948	162.4318668441847	[['x', 162.6332516609691]]	2.0	seen	False	True	3.18325166096912	2.9881201633252203	1.0	35.0	3183272.6936027543	False		False	7.0	0.0	280.0
06	ses-032	37	images_fmri/fish/fish_02s.jpg	unseen	2966	248	2	None	601.0	8685.0	2.0	unseen-between	1	1	163.92	2.98	True	False	163.9112568120472	166.8939959811978	[['a', 165.55307524604723]]	-2.0	unseen	False	True	1.633075246047241	2.982739169150591	1.0	36.0	3183277.163602754	False		False			
06	ses-032	38	images_fmri/joystick/joystick_01b.jpg	seen	4033	337	1	None	853.0	12200.0	1.0	seen-between	2	1	168.39	2.98	True	True	168.3809519931674	171.3602509032935	[['x', 170.87401728425175]]	-1.0	unseen	True	False	2.484017284251763	2.97929891012609	1.0	37.0	3183281.633602754	False		False	7.0	0.0	341.0
06	ses-032	39	images_fmri/mascara/mascara_02s.jpg	unseen	4658	389	2	None	979.0	13948.0	2.0	unseen-within	1	1	172.86	2.98	False	True	172.86027316004038	175.82706092018634	[['y', 174.95195078710094]]	-2.0	unseen	False	True	2.0919507871009277	2.9667877601459622	1.0	38.0	3183286.103602754	False		False			
06	ses-032	40	images_fmri/sunroof/sunroof_01b.jpg	seen	7369	615	1	None	1587.0	22408.0	1.0	seen-between	2	1	177.32999999999996	2.98	True	True	177.326667226851	180.3103203251958	[['a', 179.19667996000499]]	-2.0	unseen	True	True	1.8666799600050297	2.983653098344803	1.0	39.0	3183290.573602754	False		False	7.0	0.0	96.0
06	ses-032	41	images_fmri/horse/horse_01b.jpg	seen	3817	319	1	None	799.0	11421.0	1.0	seen-between	2	1	181.8	2.98	True	False	181.7932530879043	184.77949388092384	[['x', 183.87351931585]]	2.0	seen	False	True	2.0735193158499783	2.986240793019533	1.0	40.0	3183295.043602754	False		False	7.0	0.0	327.0
06	ses-032	42	images_fmri/jellyfish/jellyfish_01b.jpg	seen	4009	335	1	None	846.0	12091.0	1.0	seen-within-between	3	1	186.27	2.98	True	False	186.25980732310563	189.24303956190124	[['x', 187.53483175393194]]	2.0	seen	False	True	1.2648317539319294	2.9832322387956083	1.0	41.0	3183299.513602754	False		False	7.0	0.0	267.0
06	ses-032	43	images_fmri/radiator/radiator_02n.jpg	unseen	6086	508	2	None	1273.0	18130.0	2.0	unseen-within	1	1	190.74	2.98	True	False	190.74762096302584	193.71109302015972	[['a', 193.36852614115924]]	-2.0	unseen	False	True	2.628526141159228	2.963472057133913	1.0	42.0	3183303.9836027543	False		False			
06	ses-032	44	images_fmri/buggy/buggy_02s.jpg	seen	1082	91	2	None	214.0	3211.0	2.0	seen-within	2	1	195.21	2.98	False	True	195.20962053816768	198.18078481499103	[['b', 196.15197018813342]]	2.0	seen	False	True	0.9419701881334106	2.971164276823401	1.0	43.0	3183308.453602754	False		False	0.0	84.93000000016764	19.0
06	ses-032	45	images_fmri/bow2/bow2_01s.jpg	seen	877	74	1	None	176.0	2678.0	1.0	seen-within-between	3	1	199.68	2.98	True	False	199.67706346092743	202.65954610984767	[['x', 201.38824519421905]]	2.0	seen	False	True	1.708245194219046	2.982482648920268	1.0	44.0	3183312.9236027543	False		False	7.0	0.0	295.0
06	ses-032	46	images_fmri/horse/horse_01b.jpg	seen	3817	319	1	None	799.0	11421.0	1.0	seen-between-within	3	1	204.15	2.98	False	False	204.1480183829553	207.130893078167	[['x', 204.96538322418928]]	2.0	seen	False	True	0.8153832241892758	2.982874695211649	1.0	45.0	3183317.393602754	False		False	0.0	22.350000000093132	5.0
06	ses-032	47	images_fmri/lampshade/lampshade_01b.jpg	seen	4225	353	1	None	894.0	12799.0	1.0	seen-within-between	3	1	208.62	2.98	False	True	208.61435339786112	211.5958600291051	[['b', 210.10429661115631]]	2.0	seen	False	True	1.48429661115631	2.981506631243974	1.0	46.0	3183321.863602754	False		False	7.0	0.0	324.0
06	ses-032	48	images_fmri/wheelbarrow/wheelbarrow_02s.jpg	seen	8426	703	2	None	1808.0	25465.0	2.0	seen-within	2	1	213.09	2.98	True	False	213.097309187986	216.0644535999745	[['x', 214.02879441902041]]	2.0	seen	False	True	0.9387944190204108	2.9671444119885564	1.0	47.0	3183326.333602754	False		False	0.0	80.45999999996275	18.0
06	ses-032	49	images_fmri/blueberry/blueberry_01b.jpg	seen	769	65	1	None	150.0	2288.0	1.0	seen-between-within	3	1	217.56	2.98	False	False	217.5640343958512	220.54633167525756	[['x', 218.46920118993148]]	2.0	seen	False	True	0.9092011899314798	2.982297279406339	1.0	48.0	3183330.803602754	False		False	0.0	102.81000000005588	23.0
06	ses-032	50	images_fmri/banana_split/banana_split_02s.jpg	unseen	362	31	2	None	66.0	979.0	2.0	unseen-between	1	1	222.03	2.98	True	False	222.02865745685995	225.0091691892594	[['x', 224.32206118525937]]	2.0	seen	True	True	2.292061185259371	2.980511732399464	1.0	49.0	3183335.273602754	False		False			
06	ses-032	51	images_fmri/jeans/jeans_01s.jpg	seen	3997	334	1	None	843.0	12046.0	1.0	seen-within-between	3	1	226.5	2.98	True	True	226.4931884710677	229.4757172819227	[['y', 229.11657140683383]]	1.0	seen	False	False	2.6165714068338275	2.982528810855001	1.0	50.0	3183339.743602754	False		False	7.0	0.0	232.0
06	ses-032	52	images_fmri/violin/violin_02s.jpg	unseen	8222	686	2	None	1765.0	24873.0	2.0	unseen-between	1	1	230.97	2.98	False	False	230.9597403500229	233.9436237742193	[['y', 233.69902152288705]]	-2.0	unseen	False	True	2.729021522887052	2.9838834241963923	1.0	51.0	3183344.2136027543	False		False			
06	ses-032	53	images_fmri/chandelier/chandelier_02s.jpg	unseen	1586	133	2	None	306.0	4455.0	2.0	unseen-between	1	1	235.44	2.98	True	True	235.4423267450184	238.41381986485797	[['y', 238.45279917214066]]	1.0	seen	True	False	3.01279917214066	2.971493119839579	1.0	52.0	3183348.683602754	False		False			
06	ses-032	54	images_fmri/punching_bag/punching_bag_02s.jpg	unseen	6026	503	2	None	1257.0	17903.0	2.0	unseen-within	1	1	239.91	2.98	True	True	239.9087934801355	242.8921031150967	[['a', 241.1224922630936]]	-2.0	unseen	False	True	1.212492263093594	2.983309634961188	1.0	53.0	3183353.153602754	False		False			
06	ses-032	55	images_fmri/paint/paint_01b.jpg	seen	5245	438	1	None	1097.0	15615.0	1.0	seen-within-between	3	1	244.38	2.98	True	True	244.37893145624548	247.35888142185289	[['b', 245.906313769985]]	2.0	seen	False	True	1.526313769984995	2.979949965607375	1.0	54.0	3183357.623602754	False		False	7.0	0.0	169.0
06	ses-032	56	images_fmri/snail/snail_01b.jpg	seen	6877	574	1	None	1477.0	20917.0	1.0	seen-within-between	3	1	248.85	2.98	False	False	248.84669238701463	251.8252245252952	[['x', 251.37841214612126]]	2.0	seen	False	True	2.528412146121269	2.9785321382805705	1.0	55.0	3183362.093602754	False		False	7.0	0.0	105.0
06	ses-032	57	images_fmri/bread/bread_02s.jpg	seen	974	82	2	None	195.0	2945.0	2.0	seen-within	2	1	253.32	2.98	True	True	253.3086783289909	256.29483621986583	[['b', 254.24855823116377]]	2.0	seen	False	True	0.9285582311637768	2.9861578908748925	1.0	56.0	3183366.563602754	False		False	0.0	245.84999999962747	55.0
06	ses-032	58	images_fmri/melon/melon_01b.jpg	seen	4741	396	1	None	995.0	14163.0	1.0	seen-between-within	3	1	257.79	2.98	True	True	257.79570263717324	260.75832031900063	[['b', 258.7015182352625]]	2.0	seen	False	True	0.9115182352624628	2.962617681827396	1.0	57.0	3183371.033602754	False		False	0.0	129.62999999988824	29.0
06	ses-032	59	images_fmri/guardrail/guardrail_01b.jpg	seen	3505	293	1	None	721.0	10336.0	1.0	seen-between-within	3	1	262.26	2.98	False	False	262.26204816112295	265.2468850822188	[['x', 263.0886844089255]]	2.0	seen	False	True	0.8286844089254828	2.984836921095848	1.0	58.0	3183375.503602754	False		False	0.0	125.15999999968335	28.0
06	ses-032	60	images_fmri/wig/wig_01s.jpg	seen	8473	707	1	None	1817.0	25580.0	1.0	seen-between-within	3	1	266.73	2.98	True	False	266.7302544889972	269.7109293220565	[['x', 267.5075912219472]]	2.0	seen	False	True	0.7775912219472048	2.980674833059311	1.0	59.0	3183379.973602754	False		False	0.0	111.75	25.0
