subject	session	run	hit	miss	false_alarm	correct_rej	old	new	rate_hit_minus_FA	dprime	rt_hit	rt_miss	rt_FA	rt_CR	diff_rt_hit_minus_FA	hit_within	hit_between	hit_within_between	hit_between_within	miss_within	miss_between	miss_within_between	miss_between_within	old_within	old_between	old_within_between	old_between_within	rate_Hwith_min_FA	rate_Hbetw_min_FA	rate_Hwith_betw_min_FA	rate_Hbetw_with_min_FA	rt_hit_within	rt_hit_between	rt_hit_within_between	rt_hit_between_within	diff_rt_Hwith_min_Hbetw	rt_miss_within	rt_miss_between	rt_miss_within_between	rt_miss_between_within	hit_loConf	hit_hiConf	miss_loConf	miss_hiConf	FA_loConf	FA_hiConf	CR_loConf	CR_hiConf	dprime_hiConf	rt_hit_loConf	rt_hit_hiConf	rt_miss_loConf	rt_miss_hiConf	diff_rt_hitHC_minus_hitLC	rt_FA_loConf	rt_FA_hiConf	rt_CR_loConf	rt_CR_hiConf	hit_within_loConf	hit_between_loConf	hit_within_hiConf	hit_between_hiConf	hit_within_between_loConf	hit_between_within_loConf	hit_within_between_hiConf	hit_between_within_hiConf	miss_within_loConf	miss_between_loConf	miss_within_hiConf	miss_between_hiConf	miss_within_between_loConf	miss_between_within_loConf	miss_within_between_hiConf	miss_between_within_hiConf	rt_hit_within_loConf	rt_hit_between_loConf	rt_hit_within_hiConf	rt_hit_between_hiConf	rt_hit_within_between_loConf	rt_hit_between_within_loConf	rt_hit_within_between_hiConf	rt_hit_between_within_hiConf	rt_miss_within_loConf	rt_miss_between_loConf	rt_miss_within_hiConf	rt_miss_between_hiConf	rt_miss_within_between_loConf	rt_miss_between_within_loConf	rt_miss_within_between_hiConf	rt_miss_between_within_hiConf
sub-02	ses-002	run-1	37	3	4	16	40	20	0.7250000000000001	2.2811527045113706	1.4392479561470677	2.534644632339474	2.4526154017448403	1.6271665942668911	-1.0133674455977726	6	12	13	6	0	2	1	0	6	14	14	6	0.8	0.657142857142857	0.7285714285714286	0.8	0.9877115821838393	1.6413424173990905	1.681338330048785	0.9620662641525305	-0.6536308352152512		2.5240399885177567	2.5558539199829085		3	34	1	2	3	1	1	15	2.6812870164452627	1.9899852752685614	1.3906534868128182	2.5558539199829085	2.5240399885177567	-0.5993317884557432	2.504446566899612	2.297121906280524	1.8273879814147944	1.6138185017903643	0	2	6	10	1	0	12	6	0	0	0	2	1	0	0	0		2.039308466911315	0.9877115821838393	1.5617492074966457	1.8913388919830536		1.6638382832209293	0.9620662641525305				2.5240399885177567	2.5558539199829085			
sub-02	ses-002	run-2	36	4	4	16	40	20	0.7	2.1231727991175147	1.3064396905899054	1.673255486488344	2.0478314304351812	1.6459556597471268	-0.7413917398452758	8	9	11	8	0	3	1	0	8	12	12	8	0.8	0.55	0.7166666666666666	0.8	1.0829248559474962	1.552272383371987	1.5159072407809218	0.9653748643398252	-0.4693475274244907		1.6842853323618574	1.6401659488678035		1	35	1	3	3	1	1	15	2.7952030073274807	1.5665880680084283	1.2990068798065189	1.780530986785891	1.6374969863891617	-0.26758118820190946	2.31066395441691	1.2593338584899954	1.6477839279174802	1.6458337752024366	0	0	8	9	1	0	10	8	0	1	0	2	0	0	1	0			1.0829248559474962	1.552272383371987	1.5665880680084283		1.510839158058171	0.9653748643398252		1.780530986785891		1.6361625051498407			1.6401659488678035	
sub-02	ses-002	run-3	38	2	6	14	40	20	0.6499999999999999	2.169254139659513	1.3396700733586382	1.6095719289779673	1.820463808377582	1.7886019236700885	-0.48079373501894374	10	9	9	10	0	1	1	0	10	10	10	10	0.7	0.6000000000000001	0.6000000000000001	0.7	1.0307419757843097	1.7327378845214838	1.5931713242000964	1.0666860151290927	-0.7019959087371741		1.4689679336547885	1.7501759243011463		5	33	0	2	4	2	2	12	2.2161408566180802	2.0867190265655506	1.2264808380242573		1.6095719289779673	-0.8602381885412933	2.0023904681205735	1.4566104888915987	2.3697734355926485	1.6917400050163287	0	2	10	7	3	0	6	10	0	0	0	1	0	0	1	0		1.9648355054855344	1.0307419757843097	1.6664242785317551	2.1679747072855613		1.3057696326573638	1.0666860151290927				1.4689679336547885			1.7501759243011463	
sub-02	ses-002	run-4	38	2	6	14	40	20	0.6499999999999999	2.169254139659513	1.1884922572186134	2.2337091016769652	2.040053083101906	1.9825092220306384	-0.8515608258832927	10	10	8	10	0	0	2	0	10	10	10	10	0.7	0.7	0.5	0.7	0.9976491889953649	1.4957734727859515	1.2870450639724726	0.9932118644714365	-0.4981242837905866			2.2337091016769652		2	36	0	2	3	3	1	13	2.31798495503839	2.296675567626955	1.1269265177514833		2.2337091016769652	-1.1697490498754715	2.153148752848302	1.9269574133555096	3.2292081165313675	1.886609307069044	0	2	10	8	0	0	8	10	0	0	0	0	0	0	2	0		2.296675567626955	0.9976491889953649	1.2955479490757007			1.2870450639724726	0.9932118644714365							2.2337091016769652	
sub-02	ses-002	run-5	20	5	2	14	25	16	0.675	1.9919706139489222	1.1561426396369963	1.829982891082763	2.4642559432983546	1.507582451956616	-1.3081133036613584	5	3	3	9	0	2	3	0	5	5	6	9	0.875	0.475	0.375	0.875	1.0576957149505624	1.4724134667714444	1.4244898764292415	1.0159626875983399	-0.414717751820882		1.871316394805909	1.8024272219339987		0	20	4	1	2	0	0	14	2.704353100994566		1.1561426396369963	1.9538631534576414	1.3344618415832483		2.4642559432983546			1.507582451956616	0	0	5	3	0	0	3	9	0	2	0	0	2	0	1	0			1.0576957149505624	1.4724134667714444			1.4244898764292415	1.0159626875983399		1.871316394805909			2.0364099121093737		1.3344618415832483	
sub-02	ses-002	run-6	39	1	7	13	40	20	0.625	2.345284450947622	1.2254491779131789	1.7552597999572868	1.9737614645276769	1.9685969132643455	-0.748312286614498	14	6	5	14	0	0	1	0	14	6	6	14	0.65	0.65	0.4833333333333334	0.65	1.0608536781583546	1.7512593921025619	1.7815148925781243	0.966102544920787	-0.6904057139442072			1.7552597999572868		5	34	1	0	6	1	3	10	2.6812870164452627	2.14176568222046	1.0906967508091672	1.7552597999572868		-1.0510689314112929	2.0379102134704605	1.5888689708709762	2.471509917577104	1.8177230119705179	0	2	14	4	3	0	2	14	0	0	0	0	1	0	0	0		2.149545884132392	1.0608536781583546	1.5521161460876467	2.1365788809458386		1.2489189100265534	0.966102544920787					1.7552597999572868			
sub-02	ses-003	run-1	36	4	8	12	40	20	0.5	1.5348986686804	1.5750030679172946	2.7073611807823177	1.848172901868826	1.6659920628865574	-0.2731698339515314	6	13	11	6	0	1	3	0	6	14	14	6	0.6	0.5285714285714286	0.3857142857142857	0.6	1.0007309103012052	1.962536425957314	1.7421871809525937	1.0031154092152927	-0.9618055156561087		2.648624849319446	2.726939957936608		8	28	3	1	4	4	1	11	1.3660217462809547	2.2709559953212723	1.3761593743733005	2.572763595581056	3.1111539363861027	-0.8947966209479719	1.8801903724670446	1.8161554312706074	2.5084048366546767	1.589409083453092	0	5	6	8	3	0	8	6	0	1	0	0	2	0	1	0		2.43738484954834	1.0007309103012052	1.6657561612129226	1.993574571609493		1.6479169094562565	1.0031154092152927		2.648624849319446			2.5348329687118607		3.1111539363861027	
sub-02	ses-003	run-2	38	2	6	14	40	20	0.6499999999999999	2.169254139659513	1.3636940127924877	1.5578209829330483	1.9484342908859251	1.637072168077744	-0.5847402780934374	8	10	12	8	0	2	0	0	8	12	12	8	0.7	0.5333333333333334	0.7	0.7	0.9896665823459647	1.5055289173126247	1.7461992692947372	0.9866699278354653	-0.51586233496666		1.5578209829330483			7	31	2	0	3	3	1	13	1.7918484158542591	1.938260331835069	1.233953231073195	1.5578209829330483		-0.704307100761874	2.037168642679854	1.8596999390919962	2.621986026763921	1.5613095635634229	0	4	8	6	3	0	9	8	0	2	0	0	0	0	0	0		1.6153228855133106	0.9896665823459647	1.4323329385121675	2.3688435935974135		1.538651161193845	0.9866699278354653		1.5578209829330483						
sub-02	ses-003	run-3	37	3	6	14	40	20	0.625	1.9639319836464972	1.1946491527557368	1.955892327626562	1.4053939469655354	1.592588339533128	-0.21074479420979864	10	7	10	10	0	3	0	0	10	10	10	10	0.7	0.39999999999999997	0.7	0.7	0.936065864562989	1.4990126718793613	1.4636374759674033	0.971189654350281	-0.5629468073163723		1.955892327626562			3	34	1	2	2	4	4	10	1.8780546230667041	1.7373025957743284	1.1467679666070376	2.113572044372603	1.8770524692535417	-0.5905346291672908	2.0951984262466397	1.0604917073249833	2.003350250720981	1.428283575057987	0	1	10	6	2	0	8	10	0	1	0	2	0	0	0	0		1.8996028804779144	0.936065864562989	1.4322476371129358	1.6561524534225356		1.4155087316036203	0.971189654350281		2.113572044372603		1.8770524692535417				
sub-02	ses-003	run-4	39	1	7	13	40	20	0.625	2.345284450947622	1.2709440918457817	1.4791139411926224	1.8632420349121157	1.9196600840641922	-0.592297943066334	10	10	9	10	0	0	1	0	10	10	10	10	0.65	0.65	0.55	0.65	1.0139797124862633	1.754443139076233	1.360461900499133	0.9638433961868327	-0.7404634265899697			1.4791139411926224		4	35	0	1	5	2	6	7	2.4319009459206082	2.119788520336151	1.173933300018311		1.4791139411926224	-0.9458552203178399	2.115120025634773	1.2335470581054722	2.255611365636194	1.6317018427167622	0	3	10	7	1	0	8	10	0	0	0	0	0	0	1	0		2.1635633373260483	1.0139797124862633	1.5791059112548835	1.988464069366458		1.2819616293907172	0.9638433961868327							1.4791139411926224	
sub-02	ses-003	run-5	37	3	7	13	40	20	0.5750000000000001	1.8248519373460241	1.2329411514385347	1.8780813503265346	2.0046035684858077	1.9134512233734131	-0.771662417047273	12	6	7	12	0	2	1	0	12	8	8	12	0.65	0.4	0.525	0.65	1.0629005495707202	1.7112263568242412	1.5976638453347394	0.9510842458407094	-0.648325807253521		2.0887409877777046	1.4567620754241943		1	36	1	2	4	3	2	11	2.31798495503839	2.2822980785369893	1.203792347908022	2.078179073333743	1.7780324888229302	-1.0785057306289674	2.19882825613022	1.7456373182932576	2.341835546493531	1.8355631646243007	0	0	12	6	1	0	6	12	0	1	0	1	0	0	1	0			1.0629005495707202	1.7112263568242412	2.2822980785369893		1.483558139801031	0.9510842458407094		2.078179073333743		2.099302902221666			1.4567620754241943	
sub-02	ses-003	run-6	40	0	4	16	40	20	0.8	3.083023961177861	1.1920060462951674		1.4140991783142098	1.6359368252754223	-0.22209313201904246	14	6	6	14	0	0	0	0	14	6	6	14	0.8	0.8	0.8	0.8	1.0685046584265585	1.7188569561640403	1.405962440172828	0.9980185897009762	-0.6503522977374818					4	36	0	0	0	4	3	13	2.1231727991175147	1.8889061808586103	1.1145726980103403			-0.77433348284827		1.4140991783142098	2.093690913518278	1.5303012664501479	0	3	14	3	1	0	5	14	0	0	0	0	0	0	0	0		2.0056706269582087	1.0685046584265585	1.4320432853698717	1.5386128425598145		1.3794323596954308	0.9980185897009762								
sub-02	ses-004	run-1	37	3	4	16	40	20	0.7250000000000001	2.2811527045113706	1.4438941538011723	2.0588178793589273	1.6959681296348583	1.6911097115278253	-0.25207397583368607	6	12	13	6	0	2	1	0	6	14	14	6	0.8	0.657142857142857	0.7285714285714286	0.8	0.9529408629735272	1.8634174021085126	1.5073544399554917	0.9583036613464438	-0.9104765391349854		2.1195318794250486	1.9373898792266848		8	29	1	2	0	4	2	14	1.4393813596153926	2.153808526992799	1.2480557060241717	2.760888900756836	1.7077823686599731	-0.9057528209686272		1.6959681296348583	2.2984995079040544	1.6043397406169355	0	5	6	7	3	0	10	6	0	1	0	1	0	0	1	0		2.237475105285651	0.9529408629735272	1.5962333284105565	2.014364229838046		1.3552515029907255	0.9583036613464438		2.760888900756836		1.4781748580932614			1.9373898792266848	
sub-02	ses-004	run-2	37	3	3	17	40	20	0.775	2.475964860432246	1.2168143883266973	1.6699912675221782	2.1238745816548743	1.5475351445815149	-0.907060193328177	8	9	12	8	0	3	0	0	8	12	12	8	0.85	0.6	0.85	0.85	0.9308666217327093	1.4663382487826924	1.4336507105827347	0.8967933285236354	-0.5354716270499831		1.6699912675221782			3	34	0	3	2	1	2	15	2.6812870164452627	2.0490168762207026	1.1433847570419322		1.6699912675221782	-0.9056321191787704	1.934341912269602	2.502939920425419	2.1050319194793694	1.473202241261801	0	2	8	7	1	0	11	8	0	0	0	3	0	0	0	0		1.9513679122924792	0.9308666217327093	1.3277583449227532	2.244314804077149		1.3599539748105152	0.8967933285236354				1.6699912675221782				
sub-02	ses-004	run-3	39	1	8	12	40	20	0.575	2.2133110876758537	1.1557094945663062	1.6364379978179926	1.7005975329875964	1.7045238494873096	-0.5448880384212902	10	9	10	10	0	1	0	0	10	10	10	10	0.6	0.5	0.6	0.6	0.9068152379989625	1.3594086085425496	1.4598729391097993	0.9171111040115377	-0.45259337054358717		1.6364379978179926			0	39	0	1	2	6	2	10	2.484364497248095		1.1557094945663062		1.6364379978179926		2.351905059814456	1.48349502404531	2.0214245653152574	1.64114370632172	0	0	10	9	0	0	10	10	0	0	0	1	0	0	0	0			0.9068152379989625	1.3594086085425496			1.4598729391097993	0.9171111040115377				1.6364379978179926				
sub-02	ses-004	run-4	39	1	9	11	40	20	0.5249999999999999	2.085625331395128	1.1641627793434355	1.1661999320983938	1.7927200571695954	1.8316960707577812	-0.6285572778261599	10	10	9	10	0	0	1	0	10	10	10	10	0.55	0.55	0.45	0.55	0.9868583793640152	1.4690668468475399	1.2219662814670107	0.9845399599075331	-0.48220846748352464			1.1661999320983938		1	38	0	1	4	5	0	11	2.319343377147554	2.1523689174652105	1.1381573546560204		1.1661999320983938	-1.0142115628091901	1.8762192010879541	1.7259207420349085		1.8316960707577812	0	1	10	9	0	0	9	10	0	0	0	0	0	0	1	0		2.1523689174652105	0.9868583793640152	1.3931443945566877			1.2219662814670107	0.9845399599075331							1.1661999320983938	
sub-02	ses-004	run-5	38	2	9	11	40	20	0.49999999999999994	1.7705149738065462	1.1544918692739408	1.7492054605483958	1.5314953962961881	1.5536084868691156	-0.3770035270222474	12	6	8	12	0	2	0	0	12	8	8	12	0.55	0.3	0.55	0.55	1.0242934528986625	1.596627788543703	1.2715964543819425	0.9855526026090029	-0.5723343356450405		1.7492054605483958			1	37	0	2	1	8	0	11	1.692878574074256	1.4869758796691883	1.1455058149389339		1.7492054605483958	-0.34147006473025443	2.062655944824229	1.465100327730183		1.5536084868691156	0	0	12	6	1	0	7	12	0	0	0	2	0	0	0	0			1.0242934528986625	1.596627788543703	1.4869758796691883		1.240827965055193	0.9855526026090029				1.7492054605483958				
sub-02	ses-004	run-6	38	2	5	15	40	20	0.7	2.319343377147554	1.051545344402916	1.5282904005050675	2.003048341751094	1.8254239540100152	-0.9515029973481779	14	5	5	14	0	1	1	0	14	6	6	14	0.75	0.5833333333333334	0.5833333333333334	0.75	0.9734463862010425	1.5282103557586644	1.169148296356198	0.9174057442801359	-0.5547639695576219		1.31849195480347	1.738088846206665		2	36	1	1	1	4	0	15	2.1231727991175147	1.856237468719483	1.006840226385329	1.738088846206665	1.31849195480347	-0.8493972423341538	2.44494994163513	1.8925729417800845		1.8254239540100152	0	2	14	3	0	0	5	14	0	0	0	1	1	0	0	0		1.856237468719483	0.9734463862010425	1.3095256137847855			1.169148296356198	0.9174057442801359				1.31849195480347	1.738088846206665			
sub-02	ses-005	run-1	36	4	6	14	40	20	0.6000000000000001	1.8059520782526413	1.4683423670132965	1.8677638292312686	1.5951067829132102	1.833609260150365	-0.12676441589991372	6	12	12	6	0	2	2	0	6	14	14	6	0.7	0.5571428571428572	0.5571428571428572	0.7	1.058775455156957	1.9066108608245906	1.471780208746593	0.9944966077804539	-0.8478354056676336		1.7021900796890321	2.033337578773505		5	31	2	2	2	4	3	11	1.5970362599333834	2.4434923324585043	1.3110601145221337	1.7587395954132177	1.9767880630493195	-1.1324322179363706	1.957019100189214	1.4141506242752082	2.181531810760499	1.7387212918021469	0	4	6	8	1	0	11	6	0	1	0	1	1	0	1	0		2.5527558732032887	1.058775455156957	1.5835383546352415	2.0064381694793667		1.423174939589068	0.9944966077804539		1.885529117584241		1.5188510417938232	1.6319500732421943		2.434725084304816	
sub-02	ses-005	run-2	37	3	9	11	40	20	0.47500000000000003	1.5651928177935304	1.239079209662774	1.6749012565612749	1.6517933781941752	1.7622849369049083	-0.4127141685314011	8	10	11	8	0	2	1	0	8	12	12	8	0.55	0.38333333333333336	0.4666666666666666	0.55	1.0191055798530595	1.3464284601211518	1.4749692786823678	1.0005174314975758	-0.3273228802680923		1.2437914085388186	2.5371209526061875		7	30	1	2	5	4	3	8	1.516110983768996	1.469344511032103	1.185350639343264	2.5371209526061875	1.2437914085388186	-0.28399387168883905	1.883367744445803	1.3623254203796407	2.5748759301503505	1.457563314437867	0	6	8	4	1	0	10	8	0	0	0	2	1	0	0	0		1.4322264464696228	1.0191055798530595	1.2177314805984452	1.6920528984069847		1.453260916709906	1.0005174314975758				1.2437914085388186	2.5371209526061875			
sub-02	ses-005	run-3	39	1	9	11	40	20	0.5249999999999999	2.085625331395128	1.2782951748676803	1.6518909358978249	1.7410820049709779	1.7703659022938119	-0.4627868301032976	10	9	10	10	0	1	0	0	10	10	10	10	0.55	0.45	0.55	0.55	1.0547592687606802	1.671518190171985	1.4225903587341309	1.0036351833343555	-0.616758921411305		1.6518909358978249			4	35	1	0	7	2	6	5	2.4319009459206082	1.961776697635653	1.2001830008370549	1.6518909358978249		-0.7615936967985981	1.8305485725402855	1.4279490184784005	2.0121386353174864	1.4802386226654023	0	3	10	6	1	0	9	10	0	1	0	0	0	0	0	0		2.03299629847209	1.0547592687606802	1.4907791360219325	1.7481178951263416		1.3864206324683297	1.0036351833343555		1.6518909358978249						
sub-02	ses-005	run-4	39	1	7	13	40	20	0.625	2.345284450947622	1.249051027542508	1.3669700527191253	1.7251654393332327	1.9716706129220805	-0.4761144117907248	10	10	9	10	0	0	1	0	10	10	10	10	0.65	0.65	0.55	0.65	1.10662528419495	1.5881649055481017	1.227288446426391	1.0719492158889776	-0.48153962135315176			1.3669700527191253		6	33	1	0	5	2	6	7	2.2161408566180802	1.4952278073628804	1.204291613029713	1.3669700527191253		-0.2909361943331674	1.766849237442014	1.6209559440612793	1.992691842714945	1.953652415956768	0	4	10	6	2	0	7	10	0	0	0	0	1	0	0	0		1.5585937023162941	1.10662528419495	1.6078790410359733	1.368496017456053		1.1869434261322016	1.0719492158889776					1.3669700527191253			
sub-02	ses-005	run-5	39	1	8	12	40	20	0.575	2.2133110876758537	1.2417150267576569	1.743451042175295	1.984234828948976	1.7605581927299525	-0.7425198021913191	12	7	8	12	0	1	0	0	12	8	8	12	0.6	0.475	0.6	0.6	1.2244977394739835	1.4412063394273997	1.4324771165847787	1.0153876550992322	-0.21670859995341618		1.743451042175295			5	34	1	0	6	2	3	9	2.31798495503839	1.7212774963378934	1.171191134172328	1.743451042175295		-0.5500863621655654	2.0849157253901165	1.6821921396255544	2.141759080886847	1.6334912300109876	0	3	12	4	2	0	6	12	0	1	0	0	0	0	0	0		1.6287307230631523	1.2244977394739835	1.3005630517005855	1.8600976562500051		1.28993693669637	1.0153876550992322		1.743451042175295						
sub-02	ses-005	run-6	40	0	7	13	40	20	0.65	2.6267231940125146	1.3062807939052594		1.9030425725664426	1.7311527090806242	-0.5967617786611832	14	6	6	14	0	0	0	0	14	6	6	14	0.65	0.65	0.65	0.65	1.139753088951112	1.9570394913355595	1.4568380228678421	1.1293873875481713	-0.8172864023844475					3	37	0	0	6	1	5	8	3.084385097889929	2.089644381205237	1.2427648273674234			-0.8468795538378135	1.9880486774444606	1.3930059432983342	1.9472523727417042	1.5960904192924494	0	3	14	3	0	0	6	14	0	0	0	0	0	0	0	0		2.089644381205237	1.139753088951112	1.8244346014658817			1.4568380228678421	1.1293873875481713								
sub-02	ses-006	run-1	36	4	8	12	40	20	0.5	1.5348986686804	1.3412996135817647	1.8870461797714224	1.7835403287410754	1.6225342814127621	-0.4422407151593106	6	12	12	6	0	2	2	0	6	14	14	6	0.6	0.4571428571428571	0.4571428571428571	0.6	0.9984891064961801	1.6487494675318384	1.3906940897305837	0.9704214604695641	-0.6502603610356583		1.7881904506683353	1.98590190887451		7	29	4	0	6	2	2	10	1.8793116915870787	1.831622235434397	1.2229458772725086	1.8870461797714224		-0.6086763581618884	1.9065583070119247	1.4144863939285273	2.4058079051971486	1.4658795566558847	0	5	6	7	2	0	10	6	0	2	0	0	2	0	0	0		1.9167413825988746	0.9984891064961801	1.4573266710553838	1.618824367523203		1.3450680341720598	0.9704214604695641		1.7881904506683353			1.98590190887451			
sub-02	ses-006	run-2	36	4	8	12	40	20	0.5	1.5348986686804	1.2944716710514519	1.8591970157623265	2.0276763260364516	1.8440984010696413	-0.7332046549849998	8	9	11	8	0	3	1	0	8	12	12	8	0.6	0.35	0.5166666666666666	0.6	1.0088689649105107	1.565168934928052	1.5374797032096177	0.9414039111137402	-0.5562999700175413		1.6322090148925763	2.540161018371577		9	27	2	2	5	3	5	7	1.4901955796636694	1.7916750335693428	1.1287372168788217	2.588400545120237	1.129993486404416	-0.6629378166905211	2.0367498550415006	2.0125537776947033	2.3878142681121797	1.4557299246106854	0	5	8	4	4	0	7	8	0	1	0	2	1	0	0	0		1.6488038311004736	1.0088689649105107	1.4606253147125248	1.9702640366554292		1.2901743698120112	0.9414039111137402		2.6366400718688965		1.129993486404416	2.540161018371577			
sub-02	ses-006	run-3	35	5	7	13	40	20	0.525	1.5356698467835757	1.2132617056710397	1.6554337978363036	1.7434344182695694	1.6945842200059151	-0.5301727125985296	10	6	9	10	0	4	1	0	10	10	10	10	0.65	0.25	0.55	0.65	1.0521689586639453	1.601232471466064	1.3432723479800732	1.024562415122989	-0.5490635128021186		1.5359767460823048	2.1332620048522983		4	31	3	2	5	2	3	10	2.0369665919050695	1.7078227305412277	1.149447379881338	1.7382307020823191	1.5312384414672802	-0.5583753506598896	1.956540985107425	1.2106680011749305	1.6820506572723346	1.6983442888259894	0	3	10	3	1	0	8	10	0	2	0	2	1	0	0	0		1.6252022838592524	1.0521689586639453	1.5772626590728756	1.9556840705871537		1.2667208826541883	1.024562415122989		1.5407150506973295		1.5312384414672802	2.1332620048522983			
sub-02	ses-006	run-4	38	2	7	13	40	20	0.6	2.0301740933590398	1.2549545928051618	1.9745949125289997	1.7830970546177458	1.7902091715886026	-0.5281424618125841	10	8	10	10	0	2	0	0	10	10	10	10	0.65	0.45000000000000007	0.65	0.65	0.9958113431930556	1.62996452569962	1.34187321090698	1.1271712779998833	-0.6341531825065644		1.9745949125289997			5	33	1	1	4	3	6	7	1.9710226805672697	2.106315135955813	1.1259605711156693	2.7970698547363497	1.1521199703216496	-0.9803545648401439	2.124003179073335	1.3285555553436268	2.0858761866887385	1.5367803015027721	0	3	10	5	2	0	8	10	0	1	0	1	0	0	0	0		2.356014928817752	0.9958113431930556	1.1943342838287407	1.731765446662905		1.2444001519679988	1.1271712779998833		2.7970698547363497		1.1521199703216496				
sub-02	ses-006	run-5	39	1	9	11	40	20	0.5249999999999999	2.085625331395128	1.2682721859369523	1.2286551952362004	1.349284401999582	1.6044887048547964	-0.08101221606262965	12	8	7	12	0	0	1	0	12	8	8	12	0.55	0.55	0.425	0.55	1.0660567514101709	1.537453943490977	1.5429718358176072	1.1307916529973359	-0.4713971920808062			1.2286551952362004		7	32	0	1	2	7	2	9	1.226941699980482	1.8576370934077633	1.1393486124277126		1.2286551952362004	-0.7182884809800507	1.6991486644744924	1.2493231841496075	1.697472143173215	1.5838257185618145	0	4	12	4	3	0	4	12	0	0	0	0	0	0	1	0		1.8443803071975626	1.0660567514101709	1.2305275797843913	1.8753128083546973		1.2937161064147897	1.1307916529973359							1.2286551952362004	
sub-02	ses-006	run-6	37	3	6	14	40	20	0.625	1.9639319836464972	1.098848367639492	1.784533748626714	1.7868372551600136	1.7406729555129998	-0.6879888875205216	14	3	6	14	0	3	0	0	14	6	6	14	0.7	0.2	0.7	0.7	0.9924925477164174	1.3342517630259156	1.5991004101435375	0.9403668703351707	-0.34175921530949827		1.784533748626714			5	32	2	1	5	1	7	7	2.486474860524387	1.729344289779661	1.0003333798050906	1.8447365856170708	1.6641280746460012	-0.7290109099745703	1.8997965030670172	1.2220410156249957	1.6152441188267284	1.8661017921992715	0	2	14	1	3	0	3	14	0	2	0	1	0	0	0	0		1.4435440969467095	0.9924925477164174	1.1156670951843282	1.9198777516682952		1.2783230686187796	0.9403668703351707		1.8447365856170708		1.6641280746460012				
sub-02	ses-007	run-1	35	5	11	9	40	20	0.32499999999999996	1.0246880335209336	1.2701177823202956	1.599506914138794	1.8182467313246335	1.7013740783267564	-0.548128949004338	6	10	13	6	0	4	1	0	6	14	14	6	0.44999999999999996	0.16428571428571426	0.37857142857142856	0.44999999999999996	0.9889008013407405	1.4778806943893457	1.4075485486250645	0.9072965828577679	-0.4889798930486051		1.6508161139488222	1.3942701148986814		6	29	2	3	6	5	5	4	1.2722498762385601	1.6495434379577663	1.1916159225332328	1.9028136348724374	1.3973024336496984	-0.45792751542453347	1.9685704358418832	1.6378582859039341	2.0877952728271496	1.2183475852012648	0	3	6	7	3	0	10	6	0	2	0	2	0	0	1	0		1.6068660767873173	0.9889008013407405	1.422601244790215	1.6922207991282148		1.3221468734741193	0.9072965828577679		1.9028136348724374		1.398818593025207			1.3942701148986814	
sub-02	ses-007	run-2	38	2	11	9	40	20	0.3999999999999999	1.519192280096398	1.3786074379870774	1.6220364618301346	1.8264898404208088	1.8202890025244893	-0.44788240243373134	8	11	11	8	0	1	1	0	8	12	12	8	0.44999999999999996	0.3666666666666666	0.3666666666666666	0.44999999999999996	0.9718922019004843	1.7259046372500366	1.650197762576014	0.9343523287773134	-0.7540124353495523		1.6793909549713248	1.5646819686889444		9	29	1	1	7	4	7	2	1.4393813596153926	2.0782541200849756	1.1614757090601435	1.5646819686889444	1.6793909549713248	-0.916778411024832	2.0557887840271003	1.4252166891097988	1.9120983369009923	1.4989563322067294	0	5	8	6	4	0	7	8	0	0	0	1	1	0	0	0		2.1584250888824483	0.9718922019004843	1.3654709275563601	1.978040409088134		1.4628591074262312	0.9343523287773134				1.6793909549713248	1.5646819686889444			
sub-02	ses-007	run-3	39	1	12	8	40	20	0.375	1.7066168814042544	1.329784579643838	1.7770429325103692	1.911504841645561	1.919033908843994	-0.581720262001723	10	10	9	10	0	0	1	0	10	10	10	10	0.4	0.4	0.30000000000000004	0.4	1.0210626440048256	1.632929138183598	1.6355674160851348	1.060157403945923	-0.6118664941787724			1.7770429325103692		9	30	1	0	7	5	5	3	1.3489795003921634	1.8991765244801873	1.1589669961929332	1.7770429325103692		-0.7402095282872541	2.0024272183009564	1.7842135143280071	1.989259271621706	1.8019916375478076	0	5	10	5	4	0	5	10	0	0	0	0	1	0	0	0		1.7822223587036206	1.0210626440048256	1.4836359176635754	2.045369231700896		1.3077259635925258	1.060157403945923					1.7770429325103692			
sub-02	ses-007	run-4	37	3	10	10	40	20	0.42500000000000004	1.4395314709384563	1.3104948219093127	1.824158007303879	1.7819638786315921	1.9960173978805564	-0.47146905672227946	10	8	9	10	0	2	1	0	10	10	10	10	0.5	0.30000000000000004	0.4	0.5	1.2281974601745589	1.454024945497515	1.6904788589477542	0.9359824514389075	-0.22582748532295605		1.9853235101699909	1.5018270015716553		12	25	3	0	5	5	9	1	0.9931291141604568	1.7469837093353309	1.100980155944824	1.824158007303879		-0.6460035533905069	2.107438140869141	1.4564896163940433	2.0764165528615317	1.2724250030517794	1	5	9	3	6	0	3	10	0	2	0	0	1	0	0	0	1.6530819320678631	1.6903773479461734	1.180988074408636	1.0601042747497509	1.8098059733708733		1.451824630101516	0.9359824514389075		1.9853235101699909			1.5018270015716553			
sub-02	ses-007	run-5	35	5	13	7	40	20	0.22499999999999998	0.7650289139684401	1.1840584694998617	2.0765946598052993	1.4684652599921624	1.8958833748953663	-0.28440679049230067	12	5	6	12	0	3	2	0	12	8	8	12	0.35	-0.025000000000000022	0.09999999999999998	0.35	1.1179177093505874	1.5619430313110378	1.4311936680475863	0.9691797296206172	-0.4440253219604504		2.3449267101287865	1.6740965843200684		2	33	5	0	7	6	5	2	1.4589898037815208	1.7033510208129865	1.1525861936627027	2.0765946598052993		-0.5507648271502839	1.8031163052150265	1.0780390405654876	1.955091880798338	1.7478621101379375	0	2	12	3	0	0	6	12	0	3	0	0	2	0	0	0		1.7033510208129865	1.1179177093505874	1.4676710383097387			1.4311936680475863	0.9691797296206172		2.3449267101287865			1.6740965843200684			
sub-02	ses-007	run-6	39	1	6	14	40	20	0.675	2.484364497248095	1.2013360859797582	1.761022033691404	1.7372235409418728	1.8660658849988643	-0.5358874549621147	14	5	6	14	0	1	0	0	14	6	6	14	0.7	0.5333333333333334	0.7	0.7	1.0435395165852153	1.7844620838165284	1.4740359354019212	1.0340020063945274	-0.7409225672313131		1.761022033691404			5	34	1	0	5	1	9	5	2.6812870164452627	1.6908894538879409	1.1293429436403195	1.761022033691404		-0.5615465102476214	1.8301872386932359	1.2724050521850572	2.11170179473029	1.4239212474822978	0	3	14	2	2	0	4	14	0	1	0	0	0	0	0	0		1.6729373836517354	1.0435395165852153	1.9517491340637179	1.717817559242249		1.3521451234817574	1.0340020063945274		1.761022033691404						
sub-02	ses-008	run-1	38	2	7	13	40	20	0.6	2.0301740933590398	1.2194472353081962	2.3917390537261967	1.4847168827056936	1.8534577347682084	-0.26526964739749737	6	12	14	6	0	2	0	0	6	14	14	6	0.65	0.5071428571428571	0.65	0.65	0.9757680686314979	1.4674287645022057	1.2048344959531494	1.001259735425317	-0.4916606958707078		2.3917390537261967			8	30	2	0	4	3	11	2	1.7109231396898714	1.7213692963123335	1.0856013523737595	2.3917390537261967		-0.6357679439385739	1.7629300475120644	1.113765996297199	1.8507425854422832	1.868391056060798	0	6	6	6	2	0	12	6	0	2	0	0	0	0	0	0		1.7830468734105438	0.9757680686314979	1.1518106555938676	1.5363365650177023		1.1495841511090574	1.001259735425317		2.3917390537261967						
sub-02	ses-008	run-2	36	4	11	9	40	20	0.35	1.1558902186895261	1.2016868729061578	1.869792311191552	1.7187337736649988	1.6588500467936154	-0.517046900758841	8	8	12	8	0	4	0	0	8	12	12	8	0.44999999999999996	0.11666666666666659	0.44999999999999996	0.44999999999999996	0.9754449141025567	1.5755727899074643	1.2176754498481765	1.0300600492954244	-0.6001278758049076		1.869792311191552			7	29	3	1	7	4	8	1	1.4393813596153926	1.7863380786350878	1.0605641680750368	1.987534713745114	1.5165651035308656	-0.7257739105600509	2.0444471713474863	1.1487353277206456	1.6931429362296997	1.3845069313049407	0	3	8	5	4	0	8	8	0	3	0	1	0	0	0	0		2.1295087496439797	0.9754449141025567	1.2432112140655547	1.5289600753784187		1.0620331370830556	1.0300600492954244		1.987534713745114		1.5165651035308656				
sub-02	ses-008	run-3	33	7	8	12	40	20	0.42499999999999993	1.1879363942092798	1.145075943975739	1.608556635720385	1.7797946453094493	1.7714609519640645	-0.6347187013337103	10	6	7	10	0	4	3	0	10	10	10	10	0.6	0.19999999999999996	0.29999999999999993	0.6	1.0033777618408224	1.4339235655466727	1.3083720016479532	0.9991583127975459	-0.43054580370585027		1.610026061534887	1.6065974013010493		7	26	7	0	7	1	10	2	2.0301740933590406	1.5660083116803858	1.0317479988244882	1.608556635720385		-0.5342603128558976	1.8234686047690272	1.474076929092405	1.7321052513122606	1.9682394552230846	0	3	10	3	4	0	3	10	0	4	0	0	3	0	0	0		1.6217974376678466	1.0033777618408224	1.2460496934254988	1.5241664671897903		1.0206460475921706	0.9991583127975459		1.610026061534887			1.6065974013010493			
sub-02	ses-008	run-4	35	5	6	14	40	20	0.575	1.6747498930840488	1.2369173701150105	1.5575241317748976	1.6971126222610469	1.7338332584926062	-0.4601952521460364	10	5	10	10	0	5	0	0	10	10	10	10	0.7	0.2	0.7	0.7	1.0809350557327277	1.5801290302276627	1.3557415752410893	1.1024696493148887	-0.49919397449493497		1.5575241317748976			8	27	5	0	5	1	14	0	2.0986158171213525	1.5031096506118793	1.1580455833011236	1.5575241317748976		-0.3450640673107557	1.648412971496581	1.940610876083376	1.7338332584926062		0	3	10	2	3	2	7	8	0	5	0	0	0	0	0	0		1.5863050619761172	1.0809350557327277	1.5708649826049803	1.5531260045369468	1.303292002677921	1.2711482484000076	1.0522640609741307		1.5575241317748976						
sub-02	ses-008	run-5	32	8	4	16	40	20	0.6000000000000001	1.6832424671458286	1.2566093406081211	1.9795327985286733	1.8620837736129723	1.6442965173721338	-0.6054744330048512	12	2	6	12	0	6	2	0	12	8	8	12	0.8	0.04999999999999999	0.55	0.8	1.1855514645576497	1.9375209951400758	1.5230837424596189	1.0809447399775178	-0.7519695305824261		2.044321716626488	1.785166044235229		5	27	8	0	3	1	15	1	2.0986158171213525	1.8907676506042492	1.139172616534764	1.9795327985286733		-0.7515950340694852	2.1394063790639186	1.0301159572601328	1.6427882080078144	1.6669211578369243	1	2	11	0	2	0	4	12	0	6	0	0	2	0	0	0	1.4220081424713271	1.9375209951400758	1.1640554029291337		2.078394060134883		1.2454285836219867	1.0809447399775178		2.044321716626488			1.785166044235229			
sub-02	ses-008	run-6	38	2	8	12	40	20	0.5499999999999999	1.8982007300872719	1.2568863996706516	2.1333580303192132	2.161087222099304	1.8329894558588713	-0.9042008224286524	14	6	5	13	0	0	1	1	14	6	6	14	0.6	0.6	0.43333333333333335	0.5285714285714286	1.0181851441519616	1.992182528177899	1.289683988571167	1.1619673890333901	-0.9739973840259375			3.009116115570066	1.2575999450683604	8	30	2	0	8	0	9	3	2.634453734736136	1.9242773950099952	1.07891546758016	2.1333580303192132		-0.8453619274298352	2.161087222099304		1.8636139276292658	1.7411160405476878	1	4	13	2	1	2	4	11	0	0	0	0	1	1	0	0	1.4147390079498336	2.3776705050468467	0.9876810007828944	1.2212065744400036	1.4375219249725362	1.5156381034851023	1.2527245044708248	1.0976636227694423					3.009116115570066	1.2575999450683604		
sub-02	ses-009	run-1	32	8	12	8	40	20	0.20000000000000007	0.5882741304371146	1.3594493314623823	1.579874855279923	1.5136721062660297	1.752867989540101	-0.15422277480364732	6	8	12	6	0	6	2	0	6	14	14	6	0.4	-0.02857142857142858	0.2571428571428571	0.4	0.9772821029027293	1.5965689790248874	1.6055213729540483	0.9333129469553635	-0.619286876122158		1.3780797529220596	2.1852601623535133		15	17	4	4	9	3	5	3	0.8473149632209973	1.726227853775024	1.0358212235394633	1.8792598867416384	1.2804898238182076	-0.6904066302355607	1.6206235514746794	1.1928177706400807	1.8522065010070814	1.5873038037618	0	5	6	3	10	0	2	6	0	2	0	4	2	0	0	0		1.8500573310852075	0.9772821029027293	1.174088392257687	1.664313115119932		1.3115626621246292	0.9333129469553635		1.5732596111297634		1.2804898238182076	2.1852601623535133			
sub-02	ses-009	run-2	34	6	9	11	40	20	0.39999999999999997	1.1620947363488638	1.3797660432142378	1.8967929999033633	1.7592995177374946	1.7773126168684557	-0.3795334745232568	8	8	10	8	0	4	2	0	8	12	12	8	0.55	0.21666666666666662	0.38333333333333336	0.55	0.9628180408477744	1.6399721074104299	1.8325478210449262	0.9705307590961487	-0.6771540665626554		1.7980475115776064	2.094283976554877		14	20	6	0	8	1	10	1	1.6448536269514729	1.739643585341319	1.1278517637252812	1.8967929999033633		-0.6117918216160378	1.8155413293838498	1.3093650245666524	1.8297440814971964	1.252997970581049	0	6	8	2	8	0	2	8	0	4	0	0	2	0	0	0		1.683719987869261	0.9628180408477744	1.5087284660339364	1.7815862834453622		2.0363939714431822	0.9705307590961487		1.7980475115776064			2.094283976554877			
sub-02	ses-009	run-3	33	7	7	13	40	20	0.475	1.3199097574810477	1.3786475028413712	1.971754552296232	1.682052970613755	1.5649066624274657	-0.30340546777238386	10	5	8	10	0	5	2	0	10	10	10	10	0.65	0.15000000000000002	0.45000000000000007	0.65	1.0182069892883299	2.018819787979126	1.6608798456192	1.1932159996032723	-1.0006127986907962		1.7217687911987352	2.5967189550399743		9	24	6	1	5	2	7	6	1.5348986686804	2.0935410912831602	1.1105624071757003	2.027013653119406	1.640199947357189	-0.9829786841074599	1.8418363456726177	1.2825945329665984	1.5836734185900059	1.5430121135711687	0	4	10	1	4	1	4	9	0	4	0	1	2	0	0	0		2.108326513767242	1.0182069892883299	1.6607928848266624	2.1429154706001228	1.836901884078984	1.1788442206382772	1.1216953457726377		1.7421610021591216		1.640199947357189	2.5967189550399743			
sub-02	ses-009	run-4	27	13	9	11	40	20	0.22500000000000003	0.5794235370249536	1.1483885556680216	2.000532217025757	1.9473050901624873	2.0270871413837788	-0.7989165344944658	10	4	3	10	0	6	7	0	10	10	10	10	0.55	-0.04999999999999999	-0.15000000000000002	0.55	1.001634943962101	1.4540855097770748	1.4346424420674637	1.086987219810488	-0.4524505658149738		1.8301142040888472	2.1466047995431086		2	25	11	2	7	2	10	1	1.6001909295089756	1.4891430282592886	1.1211281978607202	2.065551053827458	1.6429286146164017	-0.3680148303985684	2.036545085906979	1.6349651050567644	2.025073646545411	2.047222089767459	0	2	10	2	0	0	3	10	0	5	0	1	6	0	1	0		1.4891430282592886	1.001634943962101	1.4190279912948611			1.4346424420674637	1.086987219810488		1.901520622253416		1.4730821132660026	2.20224308013916		1.8127751159668009	
sub-02	ses-009	run-5	35	5	14	6	40	20	0.17500000000000004	0.6259488676679672	1.3558843560900027	2.283670661926267	1.8440004614421317	1.8405785576502487	-0.488116105352129	12	6	5	12	0	2	3	0	12	8	8	12	0.30000000000000004	0.050000000000000044	-0.07499999999999996	0.30000000000000004	1.1497914838790908	1.7510172049204507	1.8620787067413331	1.1534964911143024	-0.6012257210413599		1.8689278793334942	2.560165850321449		9	26	5	0	12	2	6	0	1.6668720319521682	1.8872302352057555	1.171956936396088	2.283670661926267		-0.7152732988096675	1.902783058484397	1.4913048791885402	1.8405785576502487		0	4	12	2	5	0	0	12	0	2	0	0	3	0	0	0		1.9186696457862835	1.1497914838790908	1.4157123231887851	1.8620787067413331			1.1534964911143024		1.8689278793334942			2.560165850321449			
sub-02	ses-009	run-6	34	6	10	10	40	20	0.35	1.0364333894937898	1.2174494883593394	1.6813346322377563	1.855544701576236	1.7926437025070197	-0.6380952132168967	14	2	4	14	0	4	2	0	14	6	6	14	0.5	-0.16666666666666669	0.16666666666666663	0.5	1.1221142026356286	1.9450705671310367	1.9756856560707092	0.9922000006267024	-0.8229563644954081		1.5071528506279028	2.0296981954574633		7	27	5	1	9	1	10	0	2.0986158171213525	1.9532771301269503	1.0266793590121812	1.7184097328186083	1.495959129333496	-0.926597771114769	1.919900331497196	1.2763440322875963	1.7926437025070197		1	2	13	0	4	0	0	14	0	3	0	1	2	0	0	0	1.880056152343741	1.9450705671310367	1.0638109757350045		1.9756856560707092			0.9922000006267024		1.5108840910593717		1.495959129333496	2.0296981954574633			
sub-02	ses-010	run-1	36	4	7	13	40	20	0.55	1.6668720319521682	1.4068029477861208	1.721409094333648	1.8664119992937398	1.5912435546288122	-0.459609051507619	6	12	12	6	0	2	2	0	6	14	14	6	0.65	0.5071428571428571	0.5071428571428571	0.65	0.9771899573008227	1.846749447981517	1.399479526678723	0.9711697800954227	-0.8695594906806943		1.7580580377578698	1.684760150909426		12	24	4	0	7	0	6	7	2.213311087675854	1.9228883592287715	1.1487602420647955	1.721409094333648		-0.774128117163976	1.8664119992937398		1.561016775767009	1.6171522222246435	0	8	6	4	4	0	8	6	0	2	0	0	2	0	0	0		2.072718728780746	0.9771899573008227	1.394810886383059	1.6232276201248226		1.287605479955673	0.9711697800954227		1.7580580377578698			1.684760150909426			
sub-02	ses-010	run-2	35	5	8	12	40	20	0.475	1.4036964835118075	1.281065256936209	1.7800904140472427	1.6446916735172308	1.8713014554977463	-0.3636264165810217	8	9	10	8	0	3	2	0	8	12	12	8	0.6	0.35	0.43333333333333335	0.6	0.9636460375785809	1.712305926216976	1.4211238250732396	0.9382655131816868	-0.748659888638395		1.9556039905548086	1.5168200492858936		7	28	5	0	6	2	10	2	1.805952078252641	2.1290326091221394	1.0690734188897266	1.7800904140472427		-1.0599591902324128	1.8305998881657992	1.0869670295715252	1.9325844345092826	1.5648865604400655	0	5	8	4	2	0	8	8	0	3	0	0	2	0	0	0		2.157708232879641	0.9636460375785809	1.155553042888645	2.0573435497283867		1.2620688939094529	0.9382655131816868		1.9556039905548086			1.5168200492858936			
sub-02	ses-010	run-3	38	2	5	15	40	20	0.7	2.319343377147554	1.343517897756478	1.9052679872512788	2.0183103694915787	1.9205765584309908	-0.6747924717351008	10	8	10	10	0	2	0	0	10	10	10	10	0.75	0.55	0.75	0.75	1.0275117464065602	1.8045560801029206	1.6909647359848017	0.9432466650009171	-0.7770443336963604		1.9052679872512788			7	31	2	0	5	0	9	6	2.7153790109005236	1.7961477633884968	1.2413111539040862	1.9052679872512788		-0.5548366094844106	2.0183103694915787		2.13139463318719	1.6043494462966919	1	3	9	5	3	0	7	10	0	2	0	0	0	0	0	0	1.3446798610687258	2.029422950744627	0.9922708447774305	1.6696359577178967	1.7133618768056234		1.6813659613473066	0.9432466650009171		1.9052679872512788						
sub-02	ses-010	run-4	35	5	6	14	40	20	0.575	1.6747498930840488	1.3265537766047883	2.039752912521365	1.6057774861653744	2.090987808363779	-0.27922370956058606	10	7	8	10	0	3	2	0	10	10	10	10	0.7	0.39999999999999997	0.5	0.7	1.1585136308670065	1.7723751463208868	1.5801342403888683	0.9796545925140372	-0.6138615154538802		2.235708475112922	1.7458195686340297		10	25	5	0	3	3	12	2	1.355072753458165	1.7136536464691143	1.171713828659058	2.039752912521365		-0.5419398178100563	1.7152567927042668	1.496298179626482	2.1160488406817133	1.9406216144561768	0	4	10	3	5	1	3	9	0	3	0	0	2	0	0	0		1.8904029059410057	1.1585136308670065	1.6150048001607284	1.657907932281494	1.2853851795196505	1.4505114205678253	0.9456845272911912		2.235708475112922			1.7458195686340297			
sub-02	ses-010	run-5	37	3	5	15	40	20	0.675	2.114021221134538	1.278463209255323	1.67912266413371	1.5587428970336972	1.8324322827657058	-0.2802796877783742	12	5	8	12	0	3	0	0	12	8	8	12	0.75	0.375	0.75	0.75	1.0310663906733208	1.9023892936706546	1.4680407118797336	1.1395058242479965	-0.8713229029973337		1.67912266413371			7	30	3	0	3	2	13	2	1.956041315740682	1.9580209623064349	1.1198997335433967	1.67912266413371		-0.8381212287630382	1.607494112650561	1.4856160736084014	1.8447978437863857	1.7520561361312867	0	4	12	1	2	1	6	11	0	3	0	0	0	0	0	0		2.0761178421974193	1.0310663906733208	1.2074750995635952	1.585870103836065	2.2299351596832366	1.42876424789429	1.0403758846629747		1.67912266413371						
sub-02	ses-010	run-6	38	2	11	9	40	20	0.3999999999999999	1.519192280096398	1.20714044420343	1.355185608863831	1.56964424566789	1.740440217124089	-0.36250380146446015	14	4	6	14	0	2	0	0	14	6	6	14	0.44999999999999996	0.11666666666666659	0.44999999999999996	0.44999999999999996	1.056011343683515	1.6525588274002132	1.8700817108154315	0.9468894638334058	-0.5965474837166982		1.355185608863831			8	30	2	0	6	5	8	1	1.3489795003921634	1.8672319436073352	1.0311160443623884	1.355185608863831		-0.8361158992449469	1.7858310604095446	1.3102200679779046	1.7221327376365636	1.886900053024292	1	3	13	1	4	0	2	14	0	2	0	0	0	0	0	0	1.6543731021881172	1.7510694185892817	1.009983516106238	1.3570270538330078	2.00756854772568		1.5951080369949349	0.9468894638334058		1.355185608863831						
sub-02	ses-011	run-1	33	7	3	17	40	20	0.6749999999999999	1.9710226805672697	1.5939626791982953	2.030552088873729	1.7144704341888446	1.9959421045639947	-0.12050775499054933	6	10	11	6	0	4	3	0	6	14	14	6	0.85	0.5642857142857143	0.6357142857142857	0.85	1.209577906926474	1.658172192573548	1.9690897577459217	1.1835986185073797	-0.44859428564707393		1.8248198246955916	2.304861774444579		12	21	5	2	2	1	10	7	1.7075604048946866	2.001800827185314	1.3609123089199986	2.0791114807128936	1.9091536092758181	-0.6408885182653152	1.9086265707015997	1.3261581611633346	1.974889208793643	2.0260176699502113	0	7	6	3	5	0	6	6	0	3	0	1	2	0	1	0		1.739418938500543	1.209577906926474	1.4685964520772261	2.3691354713439936		1.6357183297475284	1.1835986185073797		1.846047430038458		1.7611370086669922	2.4287075567245466		2.057170209884644	
sub-02	ses-011	run-2	36	4	10	10	40	20	0.4	1.2815515655446004	1.3722824147012522	2.3073870968818593	1.7106104631423975	1.7754929838180544	-0.3383280484411453	8	10	10	8	0	2	2	0	8	12	12	8	0.5	0.33333333333333337	0.33333333333333337	0.5	1.1200940632820142	1.7190266895294208	1.5071614608764672	1.0224416148662603	-0.5989326262474066		2.6802786636352494	1.9344955301284692		10	26	4	0	8	2	9	1	1.6668720319521682	1.8648433799743647	1.1828358895962088	2.3073870968818593		-0.6820074903781559	1.7793289387226139	1.4357365608215318	1.8327231852213544	1.260421171188355	0	6	8	4	4	0	6	8	0	2	0	0	2	0	0	0		1.9776300986607882	1.1200940632820142	1.3311215758323698	1.695663301944729		1.3814935668309591	1.0224416148662603		2.6802786636352494			1.9344955301284692			
sub-02	ses-011	run-3	37	3	10	10	40	20	0.42500000000000004	1.4395314709384563	1.4298151758554825	1.7517399088541665	2.1907730579376246	1.9979584302902254	-0.7609578820821421	10	8	9	10	0	2	1	0	10	10	10	10	0.5	0.30000000000000004	0.4	0.5	1.1944897499084441	1.8065990209579499	1.5867578093210868	1.2224651556015034	-0.6121092710495057		1.8330388927459742	1.589141941070551		12	25	3	0	9	1	8	2	1.963492990915848	1.8160438195864386	1.2444254268646235	1.7517399088541665		-0.571618392721815	2.1702388583289256	2.375580854415915	2.0558379387855563	1.7664403963089015	1	7	9	1	4	0	5	10	0	2	0	0	1	0	0	0	2.1677128696441628	1.8538154547555128	1.0863538477155865	1.476083984375009	1.6620261955261277		1.526543100357054	1.2224651556015034		1.8330388927459742			1.589141941070551			
sub-02	ses-011	run-4	38	2	8	12	40	20	0.5499999999999999	1.8982007300872719	1.347975567767497	1.8997186470031697	1.7104782772064204	1.8526490990320843	-0.3625027094389235	10	9	9	10	0	1	1	0	10	10	10	10	0.6	0.5	0.5	0.6	1.0772501039505051	1.5704894108242489	1.688284126917518	1.112160869598393	-0.49323930687374373		2.434099197387696	1.3653380966186432		10	28	2	0	5	3	12	0	1.5608339022018305	1.774908505439755	1.1954995185988333	1.8997186470031697		-0.5794089868409218	1.8999561767578126	1.3946817779541003	1.8526490990320843		0	4	10	5	6	0	3	10	0	1	0	0	1	0	0	0		1.8119495916366546	1.0772501039505051	1.3773212661743244	1.7502144479751554		1.5644234848022431	1.112160869598393		2.434099197387696			1.3653380966186432			
sub-02	ses-011	run-5	38	2	6	14	40	20	0.6499999999999999	2.169254139659513	1.2275080364628843	2.050890083312993	1.5688560946782388	1.9104490470886295	-0.3413480582153545	12	6	8	12	0	2	0	0	12	8	8	12	0.7	0.45	0.7	0.7	1.0420493205388404	1.5332272068659467	1.561949781179429	1.0371460040410339	-0.49117788632710635		2.050890083312993			7	31	2	0	4	2	13	1	2.0369665919050695	1.5156279250553695	1.16244870678071	2.050890083312993		-0.35317921827465937	1.5592891025543165	1.587990078926083	1.8774963437593966	2.338834190368658	1	2	11	4	3	1	5	11	0	2	0	0	0	0	0	0	1.3779951095580998	1.7638990640640344	1.0115087942643621	1.4178912782669029	1.492898699442544	1.224906139373786	1.60338043022156	1.0200769008289656		2.050890083312993						
sub-02	ses-011	run-6	39	1	10	10	40	20	0.475	1.959963984540054	1.3276300990275867	2.328614187240589	2.1968941373825075	2.2092363300323496	-0.8692640383549208	14	6	5	14	0	0	1	0	14	6	6	14	0.5	0.5	0.33333333333333337	0.5	1.162450355121072	2.0711386315027878	1.6598625221252443	1.0555088921955658	-0.9086882763817157			2.328614187240589		9	30	1	0	10	0	8	2	2.634453734736136	1.9275362120734303	1.1476582651138334	2.328614187240589		-0.7798779469595969	2.1968941373825075		2.2555046427249934	2.0241630792617755	1	5	13	1	3	0	2	14	0	0	0	0	1	0	0	0	1.5516990566253526	1.9550113220214846	1.1325081473130505	2.651775178909304	2.007023413976033		1.1391211843490616	1.0555088921955658					2.328614187240589			
sub-02	ses-012	run-1	30	10	8	11	40	19	0.32894736842105265	0.8736910749853487	1.5702998876571677	1.58539070034027	2.0086370766162887	2.0407838119160058	-0.438337188959121	6	9	9	6	0	5	5	0	6	14	14	6	0.5789473684210527	0.22180451127819556	0.22180451127819556	0.5789473684210527	1.0749921242396034	1.826253594292533	1.8693122026655433	1.2331586186091197	-0.7512614700529296		1.461950279235841	1.708831121444699		15	15	6	4	7	1	10	1	1.3012168946738947	1.951539467493693	1.189060307820642	1.560906969706214	1.6221162962913542	-0.7624791596730509	2.0994813673836865	1.3727270412445025	2.077618195533754	1.672439975738527	0	9	6	0	6	0	3	6	0	3	0	2	3	0	2	0		1.826253594292533	1.0749921242396034		2.139468277295433		1.329000053405764	1.2331586186091197		1.4944314543406172		1.4132285165786769	1.6273824850718104		1.8310040760040316	
sub-02	ses-012	run-2	31	9	9	11	40	20	0.325	0.8810763732155433	1.3284834188030632	1.732889366149902	1.721919737921822	1.9641638400337917	-0.39343631911875887	8	6	9	8	0	6	3	0	8	12	12	8	0.55	0.04999999999999999	0.3	0.55	1.171719247102736	1.5390839624404948	1.6136998102400046	1.0064287424087577	-0.36736471533775883		1.770504972139997	1.657658154169712		13	18	8	1	9	0	11	0	1.8343026376849805	1.608099466470574	1.126538495487639	1.780227011442184	1.3541882038116455	-0.48156097098293493	1.721919737921822		1.9641638400337917		1	6	7	0	6	0	3	8	0	5	0	1	3	0	0	0	1.279889059066761	1.5390839624404948	1.156266416822161		1.7318167050679552		1.377466020584104	1.0064287424087577		1.8537683258056674		1.3541882038116455	1.657658154169712			
sub-02	ses-012	run-3	31	9	5	15	40	20	0.525	1.4299047765565511	1.2876443176884829	1.6045849778917076	1.8121735839843751	1.860209672292075	-0.5245292662958922	10	3	8	10	0	7	2	0	10	10	10	10	0.75	0.04999999999999999	0.55	0.75	1.1101037645340015	1.6967499224344824	1.6804620885849015	1.0281989727020298	-0.5866461579004809		1.6454879869733534	1.4614244461059478		8	23	8	1	4	1	12	3	1.8339720532242652	1.7034379422664632	1.143020448270055	1.5535669744014715	2.012729005813597	-0.5604174939964082	1.85912470817566	1.624369087219236	1.8887711691856381	1.7459636847178217	0	1	10	2	7	0	1	10	0	6	0	1	2	0	0	0		1.5710568618774232	1.1101037645340015	1.7595964527130121	1.7223495251791832		1.3872500324249302	1.0281989727020298		1.5842811504999794		2.012729005813597	1.4614244461059478			
sub-02	ses-012	run-4	33	7	7	13	40	20	0.475	1.3199097574810477	1.3449961777889392	1.6487727165222192	1.9028688294546916	1.6692600433643052	-0.5578726516657524	10	5	8	10	0	5	2	0	10	10	10	10	0.65	0.15000000000000002	0.45000000000000007	0.65	1.1583189687728939	1.9995676822662396	1.646092811822891	0.9635103273391721	-0.8412487134933457		1.7098989505767839	1.4959571313858078		9	24	7	0	5	2	11	2	1.5348986686804	1.853027389314442	1.1544844734668753	1.6487727165222192		-0.6985429158475667	2.0478427066802936	1.5404341363906866	1.6886569257216024	1.5625771903991712	0	4	10	1	5	0	3	10	0	5	0	0	2	0	0	0		2.2198798227310235	1.1583189687728939	1.1183191204071044	1.5595454425811766		1.7903384272257483	0.9635103273391721		1.7098989505767839			1.4959571313858078			
sub-02	ses-012	run-5	37	3	12	8	40	20	0.32500000000000007	1.1861843678026567	1.2557376956939699	1.5494510332743323	1.796403969128928	1.6026027047634193	-0.5406662734349581	12	5	8	12	0	3	0	0	12	8	8	12	0.4	0.025000000000000022	0.4	0.4	1.1921084904670725	1.6532326259613008	1.4204486989974965	1.043936677773795	-0.46112413549422837		1.5494510332743323			13	24	3	0	10	2	8	0	1.5348986686804	1.6733438205718971	1.0295343780517594	1.5494510332743323		-0.6438094425201377	1.7963326606750498	1.7967605113983183	1.6026027047634193		1	5	11	0	6	1	2	11	0	3	0	0	0	0	0	0	2.816483964920046	1.6532326259613008	1.0444379927895293		1.5378452316919935	1.4437511825561522	1.0682591009140054	1.0075899046117627		1.5494510332743323						
sub-02	ses-012	run-6	37	3	8	12	40	20	0.525	1.692878574074256	1.123233794650518	1.3605994319915784	1.702661358118057	1.7597215930620829	-0.579427563467539	14	4	5	14	0	2	1	0	14	6	6	14	0.6	0.2666666666666666	0.43333333333333335	0.6	1.1145254441670025	1.282977626323703	1.2894461345672625	1.0269395004000006	-0.16845218215670044		1.2990571451187165	1.4836840057373024		9	28	3	0	7	1	9	3	2.1692541396595137	1.3165560425652403	1.0610945006779287	1.3605994319915784		-0.2554615418873116	1.741443266187397	1.4311880016326768	1.7815007676018613	1.6943840694427479	1	2	13	2	5	1	0	13	0	2	0	0	1	0	0	0	1.5577241706848213	1.3301706838607785	1.0804332344348626	1.2357845687866273	1.2894461345672625	1.1837081718444722		1.014880371827349		1.2990571451187165			1.4836840057373024			
sub-02	ses-013	run-1	39	1	11	9	40	20	0.42499999999999993	1.8343026376849798	1.5670271127651914	2.861376085281364	1.686009519750425	1.6271710565355078	-0.11898240698523366	6	14	13	6	0	0	1	0	6	14	14	6	0.44999999999999996	0.44999999999999996	0.37857142857142856	0.44999999999999996	1.0899439048767168	1.7963003928320767	1.7081847675030066	1.2032977485656675	-0.7063564879553599			2.861376085281364		24	15	1	0	10	1	5	4	1.3262142629870977	1.747846347093584	1.2777163378397631	2.861376085281364		-0.470130009253821	1.6864445705413853	1.6816590118408214	1.7830690765380866	1.4322985315322843	0	13	6	1	11	0	2	6	0	0	0	0	1	0	0	0		1.8086139568915753	1.0899439048767168	1.6362240600585949	1.6760300809686854		1.8850355434417736	1.2032977485656675					2.861376085281364			
sub-02	ses-013	run-2	34	6	5	15	40	20	0.6	1.7109231396898714	1.4807142953311703	2.128224673271177	1.4448593692779625	1.8881452776591	0.035854926053207725	8	9	9	8	0	3	3	0	8	12	12	8	0.75	0.5	0.5	0.75	1.014694002866746	1.7941193358103422	1.9166605811648916	1.1037143456935903	-0.7794253329435963		1.9885510190327977	2.267898327509556		15	19	6	0	3	2	13	2	1.2188447876013866	1.9915750128428167	1.0774032025588178	2.128224673271177		-0.9141718102839989	1.6419663174947132	1.1491989469528363	1.938938402029186	1.5579899692535406	0	8	8	1	7	0	2	8	0	3	0	0	3	0	0	0		1.860671001672745	1.014694002866746	1.2617060089111192	2.1411795970371847		1.1308440256118644	1.1037143456935903		1.9885510190327977			2.267898327509556			
sub-02	ses-013	run-3	35	5	9	11	40	20	0.425	1.2760107272310819	1.3928531300680984	1.8534518928527846	1.906413077248467	1.755667037963872	-0.5135599471803687	10	8	7	10	0	2	3	0	10	10	10	10	0.55	0.35000000000000003	0.24999999999999994	0.55	1.0128811845779442	2.026284239292144	1.7679743753160742	1.0034953165054332	-1.0134030547141997		1.622818112373352	2.0072077465057396		11	24	5	0	7	2	9	2	1.5348986686804	2.00856701070612	1.110650934775672	1.8534518928527846		-0.8979160759304483	1.9458432183946879	1.7684075832366943	1.7980846860673678	1.5647876214981409	0	7	10	1	4	0	3	10	0	2	0	0	3	0	0	0		2.1065785312652587	1.0128811845779442	1.464224195480341	1.8370468497276276		1.6758777427673361	1.0034953165054332		1.622818112373352			2.0072077465057396			
sub-02	ses-013	run-4	38	2	9	11	40	20	0.49999999999999994	1.7705149738065462	1.2522178273451958	1.3295524597167976	1.7215304247538272	2.077589734684341	-0.4693125974086314	10	8	10	10	0	2	0	0	10	10	10	10	0.55	0.35000000000000003	0.55	0.55	1.0689052753448465	1.552207987308503	1.4344811000824014	1.013274978637694	-0.4833027119636566		1.3295524597167976			13	25	2	0	7	2	8	3	1.6001909295089756	1.5599609198937066	1.0921914192199704	1.3295524597167976		-0.4677695006737361	1.779739987509594	1.5177969551086434	2.0047798025608126	2.2717495536804173	0	6	10	2	7	0	3	10	0	2	0	0	0	0	0	0		1.645163488388062	1.0689052753448465	1.2733414840698263	1.4869301468985445		1.3120999908447335	1.013274978637694		1.3295524597167976						
sub-02	ses-013	run-5	38	2	12	8	40	20	0.35	1.3915065238156725	1.1817636223843222	2.4301959896087695	1.7194229729970338	2.082951941490175	-0.5376593506127116	12	7	7	12	0	1	1	0	12	8	8	12	0.4	0.275	0.275	0.4	0.9557831668853716	1.609442232676915	1.534444075993136	0.9525346239407861	-0.6536590657915435		2.492571973800665	2.367820005416874		7	31	2	0	9	3	8	0	1.7918484158542591	1.7520517975943446	1.0529888731433497	2.4301959896087695		-0.6990629244509949	1.840547528796732	1.3560493055979395	2.082951941490175		0	4	12	3	3	0	4	12	0	1	0	0	1	0	0	0		1.8196411991119366	0.9557831668853716	1.3291769440968864	1.6619325955708888		1.4388276863098213	0.9525346239407861		2.492571973800665			2.367820005416874			
sub-02	ses-013	run-6	40	0	9	11	40	20	0.55	2.367064074460021	1.1842717435359962		1.6714518207973958	1.7842267955433238	-0.48718007726139967	14	6	6	14	0	0	0	0	14	6	6	14	0.55	0.55	0.55	0.55	0.9846494395392311	1.493176261583965	1.6896455272038804	1.0349176325116816	-0.5085268220447339					8	32	0	0	7	2	6	5	2.1231727991175147	1.7421476304531118	1.0448027718067174			-0.6973448586463944	1.8143567739214224	1.1712844848633033	1.6885484774907435	1.8990407772064202	0	3	14	3	4	1	2	13	0	0	0	0	0	0	0	0		1.6059902318318695	0.9846494395392311	1.3803622913360603	1.9190453553199802	1.4430289268493652	1.230845870971681	1.0035244560241674								
sub-02	ses-014	run-1	35	5	7	13	40	20	0.525	1.5356698467835757	1.3800615861075278	1.709549842834474	1.7313861547197635	1.7453136715522188	-0.3513245686122357	6	10	13	6	0	4	1	0	6	14	14	6	0.65	0.3642857142857143	0.5785714285714286	0.65	1.1753703975677443	1.5310403814315872	1.544273028006921	0.9773299916585264	-0.35566998386384285		1.6614590883255005	1.901912860870368		16	19	5	0	7	0	9	4	1.8972572065968407	1.6494321209192322	1.1532232410029344	1.709549842834474		-0.4962088799162978	1.7313861547197635		1.7752027765909868	1.6780631852149905	0	8	6	2	8	0	5	6	0	4	0	0	1	0	0	0		1.5994895100593651	1.1753703975677443	1.2572438669204757	1.6993747317790993		1.2961103019714357	0.9773299916585264		1.6614590883255005			1.901912860870368			
sub-02	ses-014	run-2	32	8	7	13	40	20	0.45000000000000007	1.226941699980482	1.4209833097457896	1.8451749241352098	1.5322136443001904	1.7134407630333546	-0.11123033455440079	8	6	10	8	0	6	2	0	8	12	12	8	0.65	0.15000000000000002	0.4833333333333334	0.65	0.9763345921039557	2.103794604937235	1.6881079893112225	1.0196177065372483	-1.1274600128332795		1.8165648969014476	1.9310050058364965		15	17	7	1	6	1	12	1	1.4557352006786803	1.8357620894114204	1.0550020335702333	1.7822183431897862	2.2858709907531747	-0.7807600558411871	1.609766553243002	1.0668961906433196	1.7125292269388848	1.7243791961669928	0	6	8	0	8	1	2	7	0	5	0	1	2	0	0	0		2.103794604937235	0.9763345921039557		1.7192889547348087	1.1593520736694245	1.563384127616878	0.9996556540897945		1.722703678131102		2.2858709907531747	1.9310050058364965			
sub-02	ses-014	run-3	34	6	4	16	40	20	0.6499999999999999	1.8780546230667041	1.2503873959709624	2.145206522941592	1.6751023554801954	2.0047288155555747	-0.424714959509233	10	6	8	10	0	4	2	0	10	10	10	10	0.8	0.39999999999999997	0.6000000000000001	0.8	1.0891480426788367	1.496134400367738	1.56191067457199	1.0149599237442004	-0.40698635768890123		2.210523762702944	2.0145720434188874		12	22	6	0	4	0	15	1	2.0856253313951285	1.594390653769176	1.0627492553537548	2.145206522941592		-0.5316413984154214	1.6751023554801954		1.9572588602701835	2.7167781448364394	2	4	8	2	5	1	3	9	0	4	0	0	2	0	0	0	1.5224255895614611	1.55325483798981	0.9808286559581805	1.3818935251235942	1.7212756633758552	1.2684389972686745	1.2963023598988812	0.9867955822414811		2.210523762702944			2.0145720434188874			
sub-02	ses-014	run-4	35	5	9	11	40	20	0.425	1.2760107272310819	1.345289746965684	2.137262845993044	1.960328826904294	1.9740229667316769	-0.6150390799386101	10	7	8	10	0	3	2	0	10	10	10	10	0.55	0.24999999999999994	0.35000000000000003	0.55	1.0421573619842555	1.7523703629629976	1.709714598655709	1.0719258193969727	-0.7102130009787422		2.2738087304433208	1.9324440193176287		13	22	5	0	9	0	11	0	2.0856253313951285	1.8282595084263749	1.0598985242843666	2.137262845993044		-0.7683609841420083	1.960328826904294		1.9740229667316769		0	6	10	1	6	1	2	9	0	3	0	0	2	0	0	0		1.8258065923055036	1.0421573619842555	1.3117529869079618	1.8215593338012717	1.8831780529022224	1.3741803932190209	0.9817866823408339		2.2738087304433208			1.9324440193176287			
sub-02	ses-014	run-5	40	0	6	14	40	20	0.7	2.7658032403129877	1.2647159514427206		1.7098828713099146	1.7373099163600372	-0.4451669198671939	12	8	8	12	0	0	0	0	12	8	8	12	0.7	0.7	0.7	0.7	1.0225502618153932	1.6973492813110393	1.5378054201603	1.0363997753461165	-0.6747990194956461					12	28	0	0	6	0	14	0	2.4843644972480954	1.6959547932942758	1.0798993049349115			-0.6160554883593643	1.7098828713099146		1.7373099163600372		0	6	12	2	6	0	2	12	0	0	0	0	0	0	0	0		1.7048555405934682	1.0225502618153932	1.6748305034637525	1.6870540459950831		1.0900595426559505	1.0363997753461165								
sub-02	ses-014	run-6	36	4	7	13	40	20	0.55	1.6668720319521682	1.1271145497428054	1.8311787629127505	2.0756483186994266	1.8110766983032274	-0.9485337689566211	14	2	6	14	0	4	0	0	14	6	6	14	0.65	-0.016666666666666663	0.65	0.65	1.0577606861931947	1.460814042091382	1.419954188664749	1.0232943548475004	-0.40305335589818725		1.8311787629127505			6	30	4	0	6	1	13	0	2.3193433771475545	1.4482858578364066	1.062880288124085	1.8311787629127505		-0.38540556971232154	2.214583522478739	1.2420370960235516	1.8110766983032274		1	2	13	0	3	0	3	14	0	4	0	0	0	0	0	0	1.4815989017486544	1.460814042091382	1.0251577465350825		1.4288293870290072		1.411078990300491	1.0232943548475004		1.8311787629127505						
sub-02	ses-015	run-1	32	8	1	19	40	20	0.75	2.486474860524387	1.460015978813172	2.0657890403270738	2.271279125213624	1.7682148140355185	-0.8112631464004523	6	10	10	6	0	4	4	0	6	14	14	6	0.95	0.6642857142857143	0.6642857142857143	0.95	0.9385488351186074	1.9073380289077786	1.6292112979888942	0.9539541737238556	-0.9687891937891712		1.713648800849917	2.4179292798042304		15	17	7	1	1	0	13	6	1.770845558267262	1.8463896306355838	1.1190980507345734	2.1240945993151	1.6576501274108892	-0.7272915799010105	2.271279125213624		1.790656567353472	1.719591015179952	0	9	6	1	6	0	4	6	0	3	0	1	4	0	0	0		1.9926876958211288	0.9385488351186074	1.1391910266876266	1.6269425328572662		1.632614445686336	0.9539541737238556		1.7323150253295931		1.6576501274108892	2.4179292798042304			
sub-02	ses-015	run-2	35	5	8	12	40	20	0.475	1.4036964835118075	1.3090769124712276	1.757624946594237	1.6327563905715952	1.713586525917056	-0.32367947810036757	8	10	9	8	0	2	3	0	8	12	12	8	0.6	0.43333333333333335	0.35	0.6	0.9531942033767749	1.7532228097915663	1.4541390641530358	0.9465823292732223	-0.8000286064147915		2.2480355167388923	1.4306845664978003		13	22	5	0	5	3	9	3	1.162094736348864	1.7425580105414735	1.052928990884264	1.757624946594237		-0.6896290196572095	1.8003674507141114	1.3534046236674016	1.6510736020406118	1.9011252975463886	0	8	8	2	5	0	4	8	0	2	0	0	3	0	0	0		1.8217153024673447	0.9531942033767749	1.4792528390884527	1.6159063434600796		1.2519299650192313	0.9465823292732223		2.2480355167388923			1.4306845664978003			
sub-02	ses-015	run-3	36	4	12	8	40	20	0.30000000000000004	1.0282044624088007	1.3046266412735001	1.8570353960990893	1.8331390309333828	2.1941523361206037	-0.5285123896598827	10	8	8	10	0	2	2	0	10	10	10	10	0.4	0.20000000000000007	0.20000000000000007	0.4	0.9543243856430067	1.5592996799945864	1.846615031957631	1.0175997533798202	-0.6049752943515797		2.3477731227874727	1.3662976694107059		14	22	4	0	11	1	6	2	1.770514973806547	1.728989040510996	1.0345778417587304	1.8570353960990893		-0.6944111987522656	1.8065422066775254	2.125704097747814	2.4526715866724635	1.4185945844650245	0	7	10	1	7	0	1	10	0	2	0	0	2	0	0	0		1.603682054792129	0.9543243856430067	1.2486230564117875	1.8542960262298627		1.79284807205201	1.0175997533798202		2.3477731227874727			1.3662976694107059			
sub-02	ses-015	run-4	39	1	7	13	40	20	0.625	2.345284450947622	1.3031425965137988	1.5452988910675032	1.8908166612897612	1.8111341711191036	-0.5876740647759624	10	9	10	10	0	1	0	0	10	10	10	10	0.65	0.55	0.65	0.65	0.996160077095032	1.6076982985602506	1.6538768148422271	0.9852907657623305	-0.6115382214652186		1.5452988910675032			14	25	1	0	7	0	12	1	2.2786033485044297	1.7397750779560668	1.0586284069061287	1.5452988910675032		-0.6811466710499381	1.8908166612897612		1.817114432652792	1.7393710327148426	0	7	10	2	7	0	3	10	0	1	0	0	0	0	0	0		1.6034046745300334	0.996160077095032	1.6227259826660108	1.8761454813821001		1.13524992624919	0.9852907657623305		1.5452988910675032						
sub-02	ses-015	run-5	34	6	4	16	40	20	0.6499999999999999	1.8780546230667041	1.2446581094405236	1.941518417994183	2.0806155204773056	1.7966861283779152	-0.835957411036782	12	3	7	12	0	5	1	0	12	8	8	12	0.8	0.175	0.675	0.8	1.063851080735524	2.228038892745976	1.5350651018960166	1.0102158633867886	-1.164187812010452		2.0322273292541526	1.4879738616943357		9	25	5	1	4	0	14	2	2.2786033485044297	1.7837171480390792	1.0505968555450433	2.0227565021514904	1.535327997207645	-0.7331202924940359	2.0806155204773056		1.8238624388831006	1.6064519548416172	0	3	12	0	6	0	1	12	0	4	0	1	1	0	0	0		2.228038892745976	1.063851080735524		1.5615562756856312		1.3761180591583295	1.0102158633867886		2.1564521622657793		1.535327997207645	1.4879738616943357			
sub-02	ses-015	run-6	37	3	9	11	40	20	0.47500000000000003	1.5651928177935304	1.0775301149729126	1.890050083796183	1.6527954991658618	1.8610909704728587	-0.5752653841929491	14	4	5	14	0	2	1	0	14	6	6	14	0.55	0.21666666666666662	0.38333333333333336	0.55	0.9886263091223585	1.5549224925041205	1.3428662605285602	0.9352731895446763	-0.566296183381762		2.1803390884399363	1.309472074508676		8	29	2	1	9	0	11	0	2.557724110582533	1.3711277914047213	0.9965376525089655	1.594254584312438	2.481641082763672	-0.37459013889575576	1.6527954991658618		1.8610909704728587		0	3	14	1	5	0	0	14	0	1	0	1	1	0	0	0		1.4182303428649898	0.9886263091223585	1.9649989414215128	1.3428662605285602			0.9352731895446763		1.8790370941162		2.481641082763672	1.309472074508676			
sub-02	ses-016	run-1	34	6	4	16	40	20	0.6499999999999999	1.8780546230667041	1.2926705161263	1.6005599451065062	1.5572330212593073	1.822308492660519	-0.2645625051330074	6	9	13	6	0	5	1	0	6	14	14	6	0.8	0.4428571428571429	0.7285714285714286	0.8	0.9754444758097378	1.4548056104448126	1.4936663480905432	0.9312029457092331	-0.4793611346350748		1.6558891372680649	1.3239139842987129		12	22	6	0	3	1	14	2	1.770514973806547	1.6494397886594152	1.0980690947446008	1.6005599451065062		-0.5513706939148144	1.7244806671142594	1.0554900836944512	1.7979748439788794	1.9926440334319966	0	6	6	3	6	0	7	6	0	5	0	0	1	0	0	0		1.57659328778585	0.9754444758097378	1.2112302557627384	1.7222862895329805		1.2977063982827397	0.9312029457092331		1.6558891372680649			1.3239139842987129			
sub-02	ses-016	run-2	36	3	11	9	39	20	0.3730769230769231	1.3004155254177732	1.330230889850194	1.934669774373371	1.9278618023612315	1.9183302095201284	-0.5976309125110375	8	10	10	8	0	1	2	0	8	11	12	8	0.44999999999999996	0.359090909090909	0.2833333333333333	0.44999999999999996	1.0347442126274125	1.7186476058959985	1.441110668182373	1.0015969491004952	-0.6839033932685861		2.14071801185608	1.8316456556320162		10	26	3	0	10	1	9	0	2.0755809262469302	1.8973645906448364	1.112102543390716	1.934669774373371		-0.7852620472541205	1.9117605705261282	2.088874120712262	1.9183302095201284		0	6	8	4	4	0	6	8	0	1	0	0	2	0	0	0		2.0374076016743987	1.0347442126274125	1.2405076122283987	1.6873000741004933		1.276984397570293	1.0015969491004952		2.14071801185608			1.8316456556320162			
sub-02	ses-016	run-3	33	4	5	15	37	20	0.6418918918918919	1.9111419917159882	1.358314682353627	1.4878130578994693	1.640909791946413	1.7467389628092485	-0.2825951095927861	10	8	7	8	0	1	3	0	10	9	10	8	0.75	0.6388888888888888	0.44999999999999996	0.75	1.2848620901107808	1.66631363630295	1.483985669272288	1.0321693551540339	-0.38145154619216926		1.275869083404544	1.5584610493977777		15	18	4	0	5	0	13	2	1.9260841491365628	1.590183453241986	1.165090706613328	1.4878130578994693		-0.42509274662865804	1.640909791946413		1.6883491215339126	2.1262729310989315	2	7	8	1	6	0	1	8	0	1	0	0	3	0	0	0	1.4277839469909708	1.6890091555459175	1.2491316258907332	1.5074450016021783	1.5290199693044046		1.2137798690795876	1.0321693551540339		1.275869083404544			1.5584610493977777			
sub-02	ses-016	run-4	36	4	10	10	40	20	0.4	1.2815515655446004	1.2252130524317446	1.505487010478971	1.5663726501464814	1.710365931510929	-0.3411595977147368	10	8	8	10	0	2	2	0	10	10	10	10	0.5	0.30000000000000004	0.30000000000000004	0.5	1.1793830299377417	1.4603080558776882	1.3703775656223396	0.9668354616165165	-0.2809250259399465		1.5397429990768465	1.4712310218810956		12	24	4	0	7	3	9	1	1.2897804926295895	1.5564113839467444	1.0596138866742446	1.505487010478971		-0.4967974972724998	1.7153060340881308	1.2188614209493	1.638906814787127	2.3534979820251465	2	5	8	3	5	0	3	10	0	2	0	0	2	0	0	0	1.8173580837249759	1.597984008789067	1.0198892664909331	1.2308481343587232	1.410460079193129		1.3035733763376907	0.9668354616165165		1.5397429990768465			1.4712310218810956			
sub-02	ses-016	run-5	39	1	6	14	40	20	0.675	2.484364497248095	1.2193352755522124	1.2792571163177513	1.893899329503378	1.8802192694800268	-0.6745640539511655	11	8	8	12	1	0	0	0	12	8	8	12	0.6166666666666667	0.7	0.7	0.7	1.0021661602367131	1.7670707428455366	1.3248256504535671	0.9829230697949676	-0.7649045826088234	1.2792571163177513				10	29	1	0	4	2	14	0	1.8793116915870787	1.7007007703781127	1.0533471738881088	1.2792571163177513		-0.6473535964900039	2.1652784919738792	1.3511410045623755	1.8802192694800268		0	6	11	2	4	0	4	12	1	0	0	0	0	0	0	0		1.8683621136347466	1.0021661602367131	1.4631966304779063	1.4492087554931619		1.2004425454139724	0.9829230697949676	1.2792571163177513							
sub-02	ses-016	run-6	36	4	7	13	40	20	0.55	1.6668720319521682	1.250231424437631	1.8572022128105203	1.958320256641933	1.786221878345195	-0.7080888322043022	14	3	5	14	0	3	1	0	14	6	6	14	0.65	0.15000000000000002	0.4833333333333334	0.65	1.1193244865962457	2.2369733492533355	1.7182147712707547	1.0025567545209637	-1.1176488626570897		1.6863286113739047	2.369823017120368		6	30	4	0	6	1	13	0	2.3193433771475545	2.188095960617065	1.062658517201744	1.8572022128105203		-1.1254374434153211	2.0426969846089675	1.4520598888397274	1.786221878345195		1	2	13	1	3	0	2	14	0	3	0	0	1	0	0	0	1.8730529212951657	2.6507129812240575	1.0613453762347904	1.4094940853118914	1.98469895998637		1.3184884881973318	1.0025567545209637		1.6863286113739047			2.369823017120368			
sub-02	ses-017	run-1	31	9	6	14	40	20	0.47500000000000003	1.2798155390685102	1.3950967659488787	1.9240253374311693	1.6733580652872764	1.504351888384143	-0.2782612993383977	6	9	10	6	0	5	4	0	6	14	14	6	0.7	0.3428571428571429	0.4142857142857143	0.7	1.0636916923522932	1.6909474394056463	1.597865629196169	0.9447777239481615	-0.6272557470533531		1.9608561019897492	1.877986881732944		13	18	9	0	6	0	13	1	1.8343026376849805	1.7276331468728854	1.154931601948207	1.9240253374311693		-0.5727015449246784	1.6733580652872764		1.514725887592027	1.3694898986816495	1	5	5	4	7	0	3	6	0	5	0	0	4	0	0	0	1.532196884155269	1.7481970615386886	0.969990653991698	1.6193854117393434	1.7408641024998286		1.2642025248209638	0.9447777239481615		1.9608561019897492			1.877986881732944			
sub-02	ses-017	run-2	31	9	5	15	40	20	0.525	1.4299047765565511	1.3360446548461928	1.845891756481599	1.8275621147155796	1.7642491772969546	-0.4915174598693868	8	6	9	8	0	6	3	0	8	12	12	8	0.75	0.25	0.5	0.75	1.0793662726879205	1.6291582695643105	1.6638395977020255	1.0041185152530652	-0.54979199687639		1.881170713106794	1.7753338432312091		12	19	9	0	5	0	13	2	1.8972572065968407	1.6801563700040176	1.118710940009672	1.845891756481599		-0.5614454299943457	1.8275621147155796		1.7263144397735588	2.0108249711990283	0	4	8	2	8	0	1	8	0	6	0	0	3	0	0	0		1.6532507252693183	1.0793662726879205	1.5809733581542948	1.6936091923713672		1.4256828403472923	1.0041185152530652		1.881170713106794			1.7753338432312091			
sub-02	ses-017	run-3	34	6	8	12	40	20	0.44999999999999996	1.2897804926295895	1.2720908027536735	1.7826361544926972	1.8277512109279654	1.690233081976575	-0.555660408174292	10	7	7	10	0	3	3	0	10	10	10	10	0.6	0.29999999999999993	0.29999999999999993	0.6	1.0752093992233278	1.6484936932155054	1.6148396274021743	0.9655660057067866	-0.5732842939921776		1.8494301096598347	1.7158421993255597		8	26	6	0	6	2	10	2	1.6668720319521682	1.9144771182537141	1.0744334749075073	1.7826361544926972		-0.8400436433462068	1.7382857354482042	2.096147637367249	1.6190611925125142	2.0460925292968777	0	5	10	2	3	0	4	10	0	3	0	0	3	0	0	0		1.8684891376495358	1.0752093992233278	1.0985050821304299	1.9911237525940113		1.3326265335082965	0.9655660057067866		1.8494301096598347			1.7158421993255597			
sub-02	ses-017	run-4	34	6	7	13	40	20	0.5	1.4217538559013576	1.2820426795061923	2.0521052853266384	1.7922330733707952	1.9524638359363269	-0.5101903938646029	10	9	5	10	0	1	5	0	10	10	10	10	0.65	0.55	0.15000000000000002	0.65	1.1776481876373268	1.5767853779262992	1.5649087276458915	0.9797357187271123	-0.39913719028897243		2.564155015945431	1.94969533920288		12	22	6	0	5	2	13	0	1.4072129123996746	1.6554420137405452	1.0783703153783635	2.0521052853266384		-0.5770716983621818	1.9340163230895968	1.4377749490737912	1.9524638359363269		2	6	8	3	4	0	1	10	0	1	0	0	5	0	0	0	1.5888219213485613	1.6694267622629824	1.0748547542095181	1.3915026092529328	1.6677749371528812		1.1534438896179324	0.9797357187271123		2.564155015945431			1.94969533920288			
sub-02	ses-017	run-5	35	5	8	12	40	20	0.475	1.4036964835118075	1.2131276716504804	1.6823085174560535	1.7193477880954777	1.896818292935686	-0.5062201164449973	12	5	6	12	0	3	2	0	12	8	8	12	0.6	0.22499999999999998	0.35	0.6	1.0101302297910046	1.9347210483551023	1.4260149256388435	1.0090175795555156	-0.9245908185640976		1.7431631151835119	1.5910266208648665		11	24	5	0	6	2	9	3	1.5348986686804	1.690439339551063	0.9943598238627134	1.6823085174560535		-0.6960795156883497	1.8503647152582825	1.3262970066070636	1.9054537063174735	1.8709120527903238	1	5	11	0	5	0	1	12	0	3	0	0	2	0	0	0	1.294436988830569	1.9347210483551023	0.9842841607874079		1.5253581008911223		0.9292990493774482	1.0090175795555156		1.7431631151835119			1.5910266208648665			
sub-02	ses-017	run-6	37	3	10	10	40	20	0.42500000000000004	1.4395314709384563	1.187986962086446	1.8360580507914197	1.9456646080017133	1.8844891967773463	-0.7576776459152672	14	3	6	14	0	3	0	0	14	6	6	14	0.5	0.0	0.5	0.5	1.1396442461013785	1.2747853946685785	1.6043659305572504	1.0392818846021403	-0.13514114856720005		1.8360580507914197			5	32	3	0	10	0	9	1	2.801585218112969	1.6410678806304926	1.1171930685639386	1.8360580507914197		-0.523874812066554	1.9456646080017133		1.9086307525634791	1.6672151947021518	1	2	13	1	2	0	4	14	0	3	0	0	0	0	0	0	1.5071691799163889	1.380035510063173	1.1113730973463778	1.06428516387939	1.9690496015548644		1.4220240950584433	1.0392818846021403		1.8360580507914197						
sub-02	ses-018	run-1	35	5	10	10	40	20	0.375	1.1503493803760079	1.4722518612997892	2.1527591609954824	2.056448372840885	2.058726805686949	-0.5841965115410956	6	10	13	6	0	4	1	0	6	14	14	6	0.5	0.2142857142857143	0.4285714285714286	0.5	1.0706260267893501	1.6960384845733736	1.7224648732405454	0.9587717978159489	-0.6254124577840234		2.0334502243995676	2.6299949073791424		6	29	2	3	4	6	5	5	1.1221606387505192	2.2937899462382014	1.3022784644159797	2.5754779005050636	1.8709466679890951	-0.9915114818222217	2.5149059891700807	1.7508099619547544	2.022075630187984	2.0953779811859135	0	0	6	10	6	0	7	6	0	1	0	3	1	0	0	0			1.0706260267893501	1.6960384845733736	2.2937899462382014		1.2327576678139829	0.9587717978159489		2.520960893630985		1.8709466679890951	2.6299949073791424			
sub-02	ses-018	run-2	35	5	12	8	40	20	0.275	0.8970022772402082	1.3736020382472465	1.4614028854370047	2.1462154213587445	2.0067334806919153	-0.7726133831114981	8	8	11	8	0	4	1	0	8	12	12	8	0.4	0.06666666666666665	0.31666666666666665	0.4	1.0756323409080508	1.7415462136268687	1.6049808354811226	0.9854817140102408	-0.6659138727188179		1.444668831825247	1.528339099884036		8	27	1	4	8	4	3	5	1.2953834237427937	1.9416007149219574	1.2053061340473321	1.6250910377502237	1.4204808473587	-0.7362945808746253	2.219542344808581	1.9995615744590718	2.0245541286468502	1.9960410919189542	0	4	8	4	4	0	7	8	0	1	0	3	0	0	1	0		2.1315605711937025	1.0756323409080508	1.351531856060035	1.7516408586502124		1.5211751079559281	0.9854817140102408		1.6250910377502237		1.3845280965169213			1.528339099884036	
sub-02	ses-018	run-3	35	5	7	13	40	20	0.525	1.5356698467835757	1.3038715556008487	1.6891775321960467	1.776136997767862	1.8344145840864916	-0.4722654421670134	9	7	9	10	1	3	1	0	10	10	10	10	0.55	0.35	0.55	0.65	1.0213729868994799	1.707037277221686	1.5390455140007862	1.06424769973755	-0.6856642903222061	1.6324658870696993	1.8216062990824373	1.3486028766632217		5	30	3	2	5	2	6	7	1.956041315740682	1.8065983505249121	1.2200837564468379	1.9048222955067995	1.3657103872299174	-0.5865145940780743	1.9843918037414596	1.255499982833868	1.7773943312962839	1.8832890864780982	0	3	9	4	2	0	7	10	0	2	1	1	1	0	0	0		1.9227149550120188	1.0213729868994799	1.5452790188789363	1.6324234437942522		1.5123661054883673	1.06424769973755		2.1829320049285883	1.6324658870696993	1.0989548873901356	1.3486028766632217			
sub-02	ses-018	run-4	38	2	9	11	40	20	0.49999999999999994	1.7705149738065462	1.2242803377854223	1.2754003620147714	1.965805727640784	1.9361915241588254	-0.7415253898553618	10	8	10	10	0	2	0	0	10	10	10	10	0.55	0.35000000000000003	0.55	0.55	1.1576257400512717	1.4484050703048763	1.4202581329345687	0.9156573543548632	-0.2907793302536046		1.2754003620147714			3	35	0	2	5	4	7	4	1.9919706139489222	1.9353262551625583	1.163333544867382		1.2754003620147714	-0.7719927102951762	1.890622348785397	2.059784951210018	2.172457689557755	1.5227257347106988	0	2	10	6	1	0	9	10	0	0	0	2	0	0	0	0		1.771593909263613	1.1576257400512717	1.3406754573186308	2.262790946960449		1.326643375820582	0.9156573543548632				1.2754003620147714				
sub-02	ses-018	run-5	37	3	9	11	40	20	0.47500000000000003	1.5651928177935304	1.1915862013842637	1.9011197376251283	1.5060405826568593	1.8298624463514814	-0.3144543812725955	12	6	7	12	0	2	1	0	12	8	8	12	0.55	0.3	0.425	0.55	0.9843276325861648	1.608686650594078	1.4710980197361547	1.0272459848721855	-0.6243590180079132		1.8669860792160125	1.96938705444336		7	30	3	0	3	6	6	5	1.1988902629041225	1.8303488622392943	1.04254158051809	1.9011197376251283		-0.7878072817212043	2.0831447060902897	1.2174885209401438	1.9094269863764406	1.7343849983215307	0	3	12	3	4	0	3	12	0	2	0	0	1	0	0	0		1.948270969390873	0.9843276325861648	1.2691023317972832	1.7419072818756103		1.1100190035502138	1.0272459848721855		1.8669860792160125			1.96938705444336			
sub-02	ses-018	run-6	36	4	10	10	40	20	0.4	1.2815515655446004	1.054357750415804	1.6903050971031206	1.5475849752426158	1.942643730163573	-0.4932272248268119	14	5	3	14	0	1	3	0	14	6	6	14	0.5	0.33333333333333337	0.0	0.5	0.9794159310204665	1.5239442901611355	1.3604920514424796	0.8959898839678068	-0.544528359140669		1.919690065383918	1.6138434410095215		1	35	3	1	5	5	4	6	1.8248391305720895	2.4006551170349155	1.0158921113695436	1.6138434410095215	1.919690065383918	-1.384763005665372	1.908241456985479	1.186928493499753	2.2322470331192044	1.7495748615264854	0	1	14	4	0	0	3	14	0	0	0	1	3	0	0	0		2.4006551170349155	0.9794159310204665	1.3047665834426905			1.3604920514424796	0.8959898839678068				1.919690065383918	1.6138434410095215			
sub-02	ses-019	run-1	31	9	9	11	40	20	0.325	0.8810763732155433	1.4497362512157812	1.987666612201269	1.8802271768781895	1.9361657576127518	-0.4304909256624083	6	8	11	6	0	6	3	0	6	14	14	6	0.55	0.12142857142857139	0.3357142857142857	0.55	0.8890073855717956	2.015093668699265	1.5693721736561195	1.0373227024078346	-1.1260862831274694		1.8936965719858811	2.1756066926320448		13	18	9	0	6	3	10	1	0.9107720426387158	1.9633817437978907	1.0787700621287017	1.987666612201269		-0.8846116816691889	1.8404465468724591	1.9597884368896505	2.000463533401492	1.2931879997253477	0	6	6	2	7	0	4	6	0	6	0	0	3	0	0	0		2.2778250519434615	0.8890073855717956	1.2268995189666754	1.6938589082445445		1.3515203881263758	1.0373227024078346		1.8936965719858811			2.1756066926320448			
sub-02	ses-019	run-2	34	6	8	12	40	20	0.44999999999999996	1.2897804926295895	1.3292231837440949	1.7638671414057434	1.622989534139633	1.7990137823422778	-0.2937663503955381	8	6	12	8	0	6	0	0	8	12	12	8	0.6	0.09999999999999998	0.6	0.6	0.9735946381092084	1.6930351956685372	1.613237334887188	0.98597149372101	-0.7194405575593288		1.7638671414057434			8	26	5	1	6	2	10	2	1.6668720319521682	1.9096996533870731	1.1506150392385632	1.586285787582399	2.651773910522465	-0.7590846141485099	1.7793613513310766	1.1538740825653022	1.8838754301071199	1.3747055435180684	0	2	8	4	6	0	6	8	0	5	0	1	0	0	0	0		2.196133093833925	0.9735946381092084	1.4414862465858431	1.8142218399047891		1.412252829869587	0.98597149372101		1.586285787582399		2.651773910522465				
sub-02	ses-019	run-3	38	2	8	12	40	20	0.5499999999999999	1.8982007300872719	1.2923307356081528	1.9370851182937656	1.7649000918865219	1.8922530722618098	-0.47256935627836905	10	8	10	10	0	2	0	0	10	10	10	10	0.6	0.4	0.6	0.6	0.9847841911315968	1.5688094472885152	1.5986535062789924	1.0723715400695792	-0.5840252561569185		1.9370851182937656			9	29	1	1	7	1	10	2	2.242613752993951	1.6570159912109395	1.179152552834874	2.0919010543823333	1.782269182205198	-0.4778634383760654	1.836402820859638	1.2643809890747093	1.9423172807693483	1.6419320297241171	0	2	10	6	7	0	3	10	0	1	0	1	0	0	0	0		1.6508626127243105	0.9847841911315968	1.54145839214325	1.6587740993499764		1.4583721224466968	1.0723715400695792		2.0919010543823333		1.782269182205198				
sub-02	ses-019	run-4	38	2	9	11	40	20	0.49999999999999994	1.7705149738065462	1.253292022755273	1.6871518993377743	1.7970499208238355	1.876810120669282	-0.5437578980685625	10	9	9	10	0	1	1	0	10	10	10	10	0.55	0.45	0.45	0.55	0.9256770553588851	1.5708774969312904	1.5907753986782542	0.9913450250625623	-0.6452004415724053		2.14863081932068	1.2256729793548686		11	27	2	0	5	4	9	2	1.2953834237427937	1.7958139280839474	1.032264579843591	1.6871518993377743		-0.7635493482403564	2.273094306945798	1.2019944381713823	1.8355070432027223	2.0626739692688005	0	7	10	2	4	0	5	10	0	1	0	0	1	0	0	0		1.7354045077732683	0.9256770553588851	0.9950329589843676	1.9015304136276354		1.3421713867187492	0.9913450250625623		2.14863081932068			1.2256729793548686			
sub-02	ses-019	run-5	37	3	10	10	40	20	0.42500000000000004	1.4395314709384563	1.2404561957797502	1.5365266545613565	1.7603950119018563	1.75855720329285	-0.5199388161221061	12	8	5	12	0	0	3	0	12	8	8	12	0.5	0.5	0.125	0.5	1.0578150598208094	1.7412037110328664	1.5509101448059104	0.9599098428090466	-0.683388651212057			1.5365266545613565		5	32	3	0	5	5	8	2	1.516110983768996	1.9004507598876905	1.1373320451378843	1.5365266545613565		-0.7631187147498062	2.246105045318606	1.2746849784851064	1.6803152358531992	2.071525073051454	0	4	12	4	1	0	4	12	0	0	0	0	3	0	0	0		2.0244612264633117	1.0578150598208094	1.4579461956024211	1.404408893585206		1.5875354576110865	0.9599098428090466					1.5365266545613565			
sub-02	ses-019	run-6	38	2	10	10	40	20	0.44999999999999996	1.6448536269514722	1.1018095952586144	2.0527805185318027	1.736574892997743	1.962037711143492	-0.6347652977391285	14	5	5	14	0	1	1	0	14	6	6	14	0.5	0.33333333333333337	0.33333333333333337	0.5	0.9658960267475695	1.2880686569213935	1.6998464813232428	0.9576174681527281	-0.322172630173824		2.157353010177612	1.9482080268859927		6	32	2	0	7	3	8	2	1.8780546230667041	1.7691480573018408	0.9766836336255095	2.0527805185318027		-0.7924644236763313	1.9276468276977554	1.2907403786977127	1.9018928754329671	2.202617053985591	0	3	14	2	3	0	2	14	0	1	0	0	1	0	0	0		1.4859790674845403	0.9658960267475695	0.9912030410766733	2.052317047119141		1.1711406326293954	0.9576174681527281		2.157353010177612			1.9482080268859927			
sub-02	ses-020	run-1	31	9	5	15	40	20	0.525	1.4299047765565511	1.3622383516277354	1.8461068145392696	1.9859224329879523	1.8450908802544386	-0.6236840813602169	6	7	12	6	0	7	2	0	6	14	14	6	0.75	0.25	0.6071428571428571	0.75	1.024252480818357	1.5376241429778728	1.6120255438991198	0.9960330813191843	-0.5133716621595157		1.8302342169778458	1.9016609060042526		12	19	8	1	4	1	13	2	1.582146849008259	1.646687018649535	1.1825865619297566	1.8740680761088182	1.62241672198288	-0.4641004567197784	1.9909298264939588	1.965892858963926	1.895653630678291	1.5164330024993973	0	5	6	2	7	0	5	6	0	6	0	1	2	0	0	0		1.6667259415797866	1.024252480818357	1.2148696464730886	1.632373502270784		1.5835384021787902	0.9960330813191843		1.8648704661436735		1.62241672198288	1.9016609060042526			
sub-02	ses-020	run-2	29	11	5	15	40	20	0.475	1.2722498762385601	1.2042987023570177	1.9534897111089562	1.7593936656145417	1.9489874489492114	-0.5550949632575239	8	5	8	8	0	7	4	0	8	12	12	8	0.75	0.16666666666666669	0.41666666666666663	0.75	1.0155353952574702	1.491613770010417	1.4707443647677443	0.9470444297624643	-0.4760783747529469		1.9702010570197073	1.9242448557651421		9	20	9	2	5	0	12	3	1.9599639845400545	1.6219982721284032	1.0163338959598944	2.0521369863552454	1.5095769725006534	-0.6056643761685088	1.7593936656145417		2.0394925118501597	1.5869671973454185	0	3	8	2	6	0	2	8	0	6	0	1	3	0	1	0		1.7026497800104936	1.0155353952574702	1.1750597550103024	1.5816725181873579		1.1379599045089037	0.9470444297624643		2.064900755189202		1.4020028680027394	2.0266094486873336		1.6171510769985673	
sub-02	ses-020	run-3	36	4	5	15	40	20	0.65	1.956041315740682	1.2696953019837398	2.4452033832308384	1.3923309969864746	1.8859025881861673	-0.12263569500273475	10	7	9	10	0	3	1	0	10	10	10	10	0.75	0.44999999999999996	0.65	0.75	1.0076828114839742	1.8195297614255506	1.496626664982703	0.9425854441751709	-0.8118469499415764		2.3193112029802663	2.822879923982555		11	25	4	0	3	2	14	1	1.6001909295089756	1.8092638374501002	1.0322851463785412	2.4452033832308384		-0.776978691071559	1.401096646656903	1.379182522480832	1.9141954794868725	1.4898021099762957	0	6	10	1	5	0	4	10	0	3	0	0	1	0	0	0		1.9226514746628993	1.0076828114839742	1.2007994820014574	1.6731986727947412		1.275911655217655	0.9425854441751709		2.3193112029802663			2.822879923982555			
sub-02	ses-020	run-4	34	6	7	13	40	20	0.5	1.4217538559013576	1.2983134810913437	2.072154506645551	1.8576124145532968	1.75415964959172	-0.5592989334619531	10	6	8	10	0	4	2	0	10	10	10	10	0.65	0.25	0.45000000000000007	0.65	1.041768910975196	1.4174286644719583	1.760528576599024	1.113616864772979	-0.3756597534967623		1.9415014714788406	2.333460576978972		10	24	6	0	7	0	11	2	2.213311087675854	1.7003079690693408	1.1308157777671783	2.072154506645551		-0.5694921913021624	1.8576124145532968		1.7096261153378678	1.9990940879879062	1	3	9	3	6	0	2	10	0	4	0	0	2	0	0	0	1.3945354719553222	1.4989249633050814	1.0025726264218486	1.335932365638835	1.8519615548038069		1.486229641984675	1.113616864772979		1.9415014714788406			2.333460576978972			
sub-02	ses-020	run-5	39	1	6	14	40	20	0.675	2.484364497248095	1.1915107781098544	2.482097964982969	1.5947699796509334	1.7331313143342952	-0.40325920154107897	12	7	8	12	0	1	0	0	12	8	8	12	0.7	0.575	0.7	0.7	1.0146344653134804	1.639882831410168	1.4526666499860603	0.9327328118969077	-0.6252483660966877		2.482097964982969			9	30	1	0	4	2	11	3	1.956041315740682	1.7826066356535142	1.0141820208467565	2.482097964982969		-0.7684246148067577	1.7811681289837	1.2219736809853998	1.7648105669802645	1.6169740546324078	0	6	12	1	3	0	5	12	0	1	0	0	0	0	0	0		1.6910439611525068	1.0146344653134804	1.3329160529561364	1.9657319846555292		1.144827449184379	0.9327328118969077		2.482097964982969						
sub-02	ses-020	run-6	37	3	10	10	40	20	0.42500000000000004	1.4395314709384563	1.2032376137438754	1.712110538634003	1.749330676072749	1.8891007539776663	-0.5460930623288736	14	4	5	14	0	2	1	0	14	6	6	14	0.5	0.16666666666666663	0.33333333333333337	0.5	1.0343283451292007	1.6712170822487664	1.4462709585889215	1.1516408396267792	-0.6368887371195657		1.5701684544642873	1.995994706973434		8	29	3	0	8	2	10	0	1.8793116915870787	1.6279257714911353	1.0860822598825624	1.712110538634003		-0.5418435116085729	1.8817339623518712	1.2197175309562596	1.8891007539776663		2	3	12	1	3	0	2	14	0	2	0	0	1	0	0	0	1.2484805639786636	1.8132123780002207	0.9986363086542903	1.2452311949944033	1.695602636657031		1.0722734414867574	1.1516408396267792		1.5701684544642873			1.995994706973434			
sub-02	ses-021	run-1	34	6	10	10	40	20	0.35	1.0364333894937898	1.3938766296213396	1.860192883515656	1.9391100820065492	2.0978433278102893	-0.5452334523852096	6	10	12	6	0	4	2	0	6	14	14	6	0.5	0.2142857142857143	0.3571428571428571	0.5	0.9488865590095538	1.8718357470994795	1.4459679157550782	0.9380855988354142	-0.9229491880899258		1.743758361273219	2.0930619280005303		17	17	6	0	10	0	9	1	1.770845558267262	1.6746523172953445	1.1131009419473348	1.860192883515656		-0.5615513753480097	1.9391100820065492		2.1298965093426205	1.809364694019308	0	9	6	1	8	0	4	6	0	4	0	0	2	0	0	0		1.8799221291131734	0.9488865590095538	1.7990583089762353	1.4437237790002868		1.4504561892646612	0.9380855988354142		1.743758361273219			2.0930619280005303			
sub-02	ses-021	run-2	34	6	3	17	40	20	0.7	2.0728667789875797	1.3234005539159657	1.6622319836782609	2.092729996005076	1.954656254541788	-0.7693294420891104	8	8	10	8	0	4	2	0	8	12	12	8	0.85	0.5166666666666666	0.6833333333333333	0.85	0.9735092797488321	1.613346014503913	1.693067104706777	0.9212631790066386	-0.6398367347550808		1.694873502010016	1.5969489470147504		11	23	6	0	3	0	16	1	2.149082410812847	1.8308550199153013	1.0807049397423705	1.6622319836782609		-0.7501500801729308	2.092729996005076		1.9769816864513285	1.5974493439891404	0	4	8	4	7	0	3	8	0	4	0	0	2	0	0	0		1.8764975335064809	0.9735092797488321	1.350194495501345	1.8047735835774847		1.4324186540084582	0.9212631790066386		1.694873502010016			1.5969489470147504			
sub-02	ses-021	run-3	34	6	9	11	40	20	0.39999999999999997	1.1620947363488638	1.3377727932349428	2.1791184696675447	1.9456760494348921	1.868997068712491	-0.6079032561999493	10	6	8	10	0	4	2	0	10	10	10	10	0.55	0.14999999999999997	0.35000000000000003	0.55	0.9382950088013835	1.8276869663270208	1.8509897452511437	1.0327285122002947	-0.8893919575256373		2.235240124244595	2.066875160513444		12	22	6	0	8	1	11	0	1.770514973806547	1.8057833722499652	1.082494295590385	2.1791184696675447		-0.7232890766595803	1.8484785957395817	2.723255678997376	1.868997068712491		0	3	10	3	8	1	0	9	0	4	0	0	2	0	0	0		1.828646056323005	0.9382950088013835	1.8267278763310362	1.8509897452511437	1.37554433602142		0.9946378651090586		2.235240124244595			2.066875160513444			
sub-02	ses-021	run-4	39	1	9	11	40	20	0.5249999999999999	2.085625331395128	1.1453471236080195	2.273459181969514	1.6788643027679067	1.899279234986116	-0.5335171791598872	10	9	10	10	0	1	0	0	10	10	10	10	0.55	0.45	0.55	0.55	0.9457418818953442	1.2558827918752422	1.4250321705935147	0.9657852168946988	-0.31014090997989796		2.273459181969514			13	26	1	0	8	1	10	1	2.0301740933590406	1.4124499899132887	1.0117956904553849	2.273459181969514		-0.4006542994579039	1.712153946865583	1.4125471499864943	1.8639475105875156	2.25259647897212	0	6	10	3	7	0	3	10	0	1	0	0	0	0	0	0		1.309892320483927	0.9457418818953442	1.1478637346578726	1.5003565637098843		1.2492752533219853	0.9657852168946988		2.273459181969514						
sub-02	ses-021	run-5	35	5	13	7	40	20	0.22499999999999998	0.7650289139684401	1.2633420126957675	2.0618837212123964	1.7753568202336016	2.0118200953038694	-0.5120148075378341	12	5	6	12	0	3	2	0	12	8	8	12	0.35	-0.025000000000000022	0.09999999999999998	0.35	1.1900102753452177	1.5674807882094755	1.557159099009585	1.0630407170920304	-0.3774705128642577		2.446994782012586	1.4842171300121119		10	25	5	0	11	2	6	1	1.6001909295089756	1.6135382234130482	1.1232635284088552	2.0618837212123964		-0.49027469500419296	1.7796414929154274	1.75179112048356	2.0890034295215005	1.5487200899980849	0	5	12	0	4	1	2	11	0	3	0	0	2	0	0	0		1.5674807882094755	1.1900102753452177		1.7135861420124954	1.4436337250331237	1.244305013003764	1.0284413527337493		2.446994782012586			1.4842171300121119			
sub-02	ses-021	run-6	40	0	12	8	40	20	0.4	1.9880556244691472	1.2561437405920013		1.5365920811631613	1.9572473371148207	-0.28044834057115997	14	6	6	14	0	0	0	0	14	6	6	14	0.4	0.4	0.4	0.4	1.064949813781006	1.8128856394921133	1.7767537543266816	0.9856154191309426	-0.7479358257111073					12	28	0	0	10	2	8	0	1.805952078252641	1.7538546702455864	1.0428390564547505			-0.7110156137908359	1.5501507310979104	1.4687988314894156	1.9572473371148207		2	5	12	1	5	0	1	14	0	0	0	0	0	0	0	0	1.361552547995231	1.9038924123966154	1.015516024745302	1.3578517749696033	1.7607377769946992		1.856833640986593	0.9856154191309426								
sub-02	ses-022	run-1	35	5	5	15	40	20	0.625	1.8248391305720895	1.3630810742488002	1.8533219822375187	1.7471061770147613	2.0661616962145417	-0.38402510276596113	6	12	11	6	0	2	3	0	6	14	14	6	0.75	0.6071428571428571	0.5357142857142857	0.75	0.9521756053568472	1.608155506847156	1.5364970258462514	0.9659084333487146	-0.6559799014903088		1.7179213340254729	1.9435890810455492		18	17	4	1	4	1	11	4	1.4557352006786803	1.6235306725181493	1.0873109113753714	1.938548083296638	1.5124175780010418	-0.5362197611427779	1.8397601112635993	1.3764904400194098	2.059466640837915	2.084573098500265	0	10	6	2	8	0	3	6	0	1	0	1	3	0	0	0		1.6532210053119347	0.9521756053568472	1.3828280145232625	1.586417756525918		1.4033750773671396	0.9659084333487146		1.923425090049904		1.5124175780010418	1.9435890810455492			
sub-02	ses-022	run-2	35	5	7	13	40	20	0.525	1.5356698467835757	1.331809259212776	2.0747594745880944	2.007726921989988	2.0258621385260134	-0.6759176627772119	8	8	11	8	0	4	1	0	8	12	12	8	0.65	0.31666666666666665	0.5666666666666667	0.65	1.0352923251074397	1.7607074648552237	1.5124723049875515	0.9510162997353477	-0.7254151397477839		2.23547651648871	1.4318913069856336		13	22	5	0	7	0	10	3	2.0856253313951285	1.7397976538289996	1.0907252078486438	2.0747594745880944		-0.6490724459803558	2.007726921989988		2.066178283492102	1.8914749886390514	1	5	7	3	7	0	4	8	0	4	0	0	1	0	0	0	1.2466435419931088	1.9627076511750965	1.0050992941237726	1.4240404876554358	1.6510268145583435		1.2700019132386657	0.9510162997353477		2.23547651648871			1.4318913069856336			
sub-02	ses-022	run-3	38	2	9	11	40	20	0.49999999999999994	1.7705149738065462	1.3001330360248213	1.8731786269717894	1.6178587436362972	1.8192523404227758	-0.3177257076114759	10	9	9	10	0	1	1	0	10	10	10	10	0.55	0.45	0.45	0.55	1.134814293867913	1.6708289158623653	1.5088618270801901	0.9439695743781076	-0.5360146219944522		2.1636483819806003	1.5827088719629785		12	26	2	0	7	2	11	0	1.6668720319521682	1.5912588798918295	1.1657672619323558	1.8731786269717894		-0.42549161795947366	1.7486699841081668	1.1600194019847545	1.8192523404227758		0	7	10	2	5	0	4	10	0	1	0	0	1	0	0	0		1.672325697402867	1.134814293867913	1.665590180470609	1.4777653353763767		1.547732441709957	0.9439695743781076		2.1636483819806003			1.5827088719629785			
sub-02	ses-022	run-4	40	0	8	12	40	20	0.6	2.4947498307407465	1.3765886014028224		1.9769065289094634	1.9556938646112894	-0.600317927506641	10	10	10	10	0	0	0	0	10	10	10	10	0.6	0.6	0.6	0.6	1.1887929796285477	1.8380733905301898	1.4897196826243273	0.9897683528282244	-0.6492804109016421					10	30	0	0	7	1	12	0	2.3193433771475545	1.8807182111258136	1.2085453981618253			-0.6721728129639883	1.897309546180939	2.5340854080091333	1.9556938646112894		0	6	10	4	4	0	6	10	0	0	0	0	0	0	0	0		1.9554735773627183	1.1887929796285477	1.6619731102813973	1.7685851617704564		1.3038093631935748	0.9897683528282244								
sub-02	ses-022	run-5	36	4	8	12	40	20	0.5	1.5348986686804	1.2319745371023767	1.9517425197345544	1.8482437551152555	2.12069114007017	-0.6162692180128788	12	6	6	12	0	2	2	0	12	8	8	12	0.6	0.35	0.35	0.6	1.1136185114106996	1.5937306873228725	1.571728669150038	0.9995754216599751	-0.4801121759121729		1.9669255744747343	1.9365594649943747		8	28	4	0	5	3	9	3	1.5608339022018305	1.7488692309841305	1.084290338850447	1.9517425197345544		-0.6645788921336835	2.0335964807928546	1.5393225456525907	2.056935791988187	2.311957184316119	0	4	12	2	4	0	2	12	0	2	0	0	2	0	0	0		1.79852921423619	1.1136185114106996	1.1841336334962378	1.699209247732071		1.3167675119859723	0.9995754216599751		1.9669255744747343			1.9365594649943747			
sub-02	ses-022	run-6	39	1	10	10	40	20	0.475	1.959963984540054	1.0830399116911364	1.847244678996504	1.7221234955750417	1.7438036058761657	-0.6390835838839053	14	5	6	14	0	1	0	0	14	6	6	14	0.5	0.33333333333333337	0.5	0.5	0.9104676632633016	1.5541847495827867	1.4117115829648268	0.946486858897515	-0.6437170863194851		1.847244678996504			8	31	1	0	8	2	8	2	2.0369665919050695	1.5766220104810802	0.9556638861969576	1.847244678996504		-0.6209581242841226	1.8848920997264234	1.0710490789695157	1.7450603668479012	1.7387765619892228	0	4	14	1	3	1	3	13	0	1	0	0	0	0	0	0		1.7133117899904047	0.9104676632633016	0.9176765879523144	1.4551225756395916	1.394361196968248	1.3683005902900618	0.9120349867382279		1.847244678996504						
sub-02	ses-023	run-1	35	5	7	13	40	20	0.525	1.5356698467835757	1.4693773962792134	1.9850975936120463	1.9210603945815425	1.6824848384010784	-0.45168299830232916	6	11	12	6	0	3	2	0	6	14	14	6	0.65	0.4357142857142857	0.5071428571428571	0.65	0.9403650913550466	1.9746187509338116	1.533183676355404	0.9445013241842352	-1.034253659578765		2.0090176713497834	1.9492174770054405		18	17	4	1	6	1	8	5	1.4557352006786803	1.8109776571373613	1.1076830024294098	2.1085359650041315	1.491344108043705	-0.7032946547079515	2.045851843677619	1.172311700005082	1.709626885018083	1.6390575638138714	0	10	6	1	8	0	4	6	0	2	0	1	2	0	0	0		2.028099843526957	0.9403650913550466	1.4398078250023616	1.539574924150367		1.5204011807654787	0.9445013241842352		2.2678544530028226		1.491344108043705	1.9492174770054405			
sub-02	ses-023	run-2	32	8	7	13	40	20	0.45000000000000007	1.226941699980482	1.230366693495525	1.9461555278988123	1.7046467058756412	1.9678613200253627	-0.4742800123801161	8	7	9	8	0	5	3	0	8	12	12	8	0.65	0.2333333333333334	0.4	0.65	0.9568784775253167	1.5831263058822194	1.4807425865849113	0.9135173689018163	-0.6262478283569026		1.9495614648275095	1.9404789663509838		11	21	8	0	6	1	12	1	1.7075604048946866	1.6619017498491475	1.004324521119818	1.9461555278988123		-0.6575772287293296	1.8016509750163354	1.1226210910314762	1.9863588001078496	1.7458915590355204	0	6	8	1	5	0	4	8	0	5	0	0	3	0	0	0		1.6629079218589073	0.9568784775253167	1.1044366100220913	1.6606943434374357		1.2558028905192558	0.9135173689018163		1.9495614648275095			1.9404789663509838			
sub-02	ses-023	run-3	38	2	11	9	40	20	0.3999999999999999	1.519192280096398	1.2952145838040843	2.203691852986811	1.7836164380199386	1.9267364113457108	-0.48840185421585436	10	8	10	10	0	2	0	0	10	10	10	10	0.44999999999999996	0.25	0.44999999999999996	0.44999999999999996	0.9963855412155438	1.4861513311427572	1.7818784323139085	0.9546303800118622	-0.4897657899272134		2.203691852986811			12	26	2	0	9	2	7	2	1.6668720319521682	1.6491557865221231	1.1318571056265279	2.203691852986811		-0.5172986808955953	1.7539245511286181	1.9172299290308814	1.9335148295836675	1.9030119475128626	1	5	9	3	6	0	4	10	0	2	0	0	0	0	0	0	1.2756664290395603	1.5732985056219675	0.9653543314573196	1.3409060403440733	1.7746184135193463		1.7927684605057514	0.9546303800118622		2.203691852986811						
sub-02	ses-023	run-4	36	4	3	17	40	20	0.75	2.31798495503839	1.2937343824921284	1.671162932008741	1.7394012236828	1.7785344837226604	-0.4456668411906717	10	6	10	10	0	4	0	0	10	10	10	10	0.85	0.44999999999999996	0.85	0.85	0.9225441821252456	1.8090730288551	1.6716417987199954	0.9778139788133607	-0.8865288467298544		1.671162932008741			12	24	3	1	2	1	14	3	1.8982007300872725	1.7842567115185828	1.048473217978901	1.7650324923467526	1.3895542509947063	-0.7357834935396819	2.1213654815219343	0.9754727080045312	1.8181280091577912	1.5937646983587161	0	5	10	1	7	0	3	10	0	3	0	1	0	0	0	0		1.8623263506176833	0.9225441821252456	1.542806420042183	1.7284926835906538		1.5389897340217924	0.9778139788133607		1.7650324923467526		1.3895542509947063				
sub-02	ses-023	run-5	35	5	9	11	40	20	0.425	1.2760107272310819	1.1692718401352324	1.813504536787515	1.9030191298760508	1.8101013577071283	-0.7337472897408184	12	4	7	12	0	4	1	0	12	8	8	12	0.55	0.04999999999999999	0.425	0.55	0.9749306986661388	1.6623744759883232	1.5929214952729756	0.9521164708229456	-0.6874437773221844		1.8665042802365512	1.6015055629913704		8	27	4	1	9	0	8	3	2.413726174709934	1.6585249314884987	1.0243079612157462	1.8665042802365512	1.6015055629913704	-0.6342169702727525	1.9030191298760508		1.8742663259792733	1.6389947756480743	0	4	12	0	4	0	3	12	0	4	0	0	0	0	1	0		1.6623744759883232	0.9749306986661388		1.6546753869886741		1.5105829729853777	0.9521164708229456		1.8665042802365512					1.6015055629913704	
sub-02	ses-023	run-6	37	3	2	18	40	20	0.8250000000000001	2.7210830364830567	1.0513811342026806	1.591197287690207	1.5074153695197197	1.759672233905101	-0.456034235317039	14	4	5	14	0	2	1	0	14	6	6	14	0.9	0.5666666666666667	0.7333333333333334	0.9	0.9570962103747357	1.3514411942736473	1.4065118450014864	0.9331022155822046	-0.3943449838989116		1.6940586405328943	1.3854745820048322		5	32	3	0	2	0	16	2	2.801585218112969	1.5364561864058488	0.9755881572959357	1.591197287690207		-0.5608680291099131	1.5074153695197197		1.7341018399517645	1.9642353855317918	0	1	14	3	4	0	1	14	0	2	0	0	1	0	0	0		1.6940649770409806	0.9570962103747357	1.2372332666845363	1.4970539887470657		1.0443432700191693	0.9331022155822046		1.6940586405328943			1.3854745820048322			
sub-02	ses-024	run-1	34	6	8	12	40	20	0.44999999999999996	1.2897804926295895	1.4259199939999627	1.7965105552008975	2.046904607141626	2.07893002062105	-0.6209846131416632	6	9	13	6	0	5	1	0	6	14	14	6	0.6	0.24285714285714288	0.5285714285714286	0.6	0.9915764663717729	1.7266546813641763	1.6342332058758136	0.9578161981841559	-0.7350782149924034		1.8128215032368886	1.714955815020943		20	14	5	1	8	0	10	2	1.5746435181324867	1.6756675772278116	1.0691377322458935	1.6939680456239699	2.309223103085536	-0.6065298449819181	2.046904607141626		2.1429285636362634	1.7589373055449824	0	8	6	1	12	0	1	6	0	4	0	1	1	0	0	0		1.7060983004025179	0.9915764663717729	1.891105729057444	1.6553804284446736		1.3804665350494911	0.9578161981841559		1.6887211032747267		2.309223103085536	1.714955815020943			
sub-02	ses-024	run-2	34	6	6	14	40	20	0.55	1.5608339022018307	1.3290813236676753	1.9756870340470538	2.191438155883622	1.9463025055632823	-0.8623568322159465	8	9	9	8	0	3	3	0	8	12	12	8	0.7	0.45	0.45	0.7	1.0845737295370828	1.6251704374995666	1.3880586006026694	1.1741392281855223	-0.5405967079624838		1.9059221390464032	2.0454519290477045		9	25	6	0	6	0	10	4	2.2786033485044297	1.7657940484992143	1.1718647427283213	1.9756870340470538		-0.593929305770893	2.191438155883622		1.9338752693622396	1.9773705960658887	1	5	7	4	3	0	6	8	0	3	0	0	3	0	0	0	1.4423343460727551	1.878114266646095	1.0334650700319867	1.3089906510664058	1.6864135857298994		1.2388811080390543	1.1741392281855223		1.9059221390464032			2.0454519290477045			
