subject	session	TrialNumber	image_path	condition	image_nr	category_nr	exemplar_nr	test_image_nr	things_category_nr	things_image_nr	things_exemplar_nr	subcondition	repetition	run	onset	duration	response_mapping_flip_h	response_mapping_flip_v	onset_flip	offset_flip	keypresses	response	response_txt	error	response_confidence	response_time	duration_flip	ran	order	session_trial_time	atypical	atypical_log	exclude_session	delay_days	delay_seconds	trials_since_lastrep
2	ses-001	1	images_fmri/telescope/telescope_03n.jpg	unseen	7599	634	3	None	1641.0	23165.0	3.0	unseen-within	1	1	3.0	2.98	False	False	2.985785961151123	5.964135885238648	[['y', 5.176927089691162]]	-2.0	unseen	False	True	2.176927089691162	2.9783499240875244	1.0	0.0	1618412476.827	False		False			
2	ses-001	2	images_fmri/jellyfish/jellyfish_03s.jpg	unseen	4011	335	3	None	846.0	12093.0	3.0	unseen-within	1	1	7.47	2.98	True	True	7.467736959457397	10.433175086975098	[['a', 9.453518152236938]]	-2.0	unseen	False	True	1.9835181522369387	2.9654381275177	1.0	1.0	1618412481.3089	False		False			
2	ses-001	3	images_fmri/pan/pan_03s.jpg	unseen	5271	440	3	None	1104.0	15707.0	3.0	unseen-within	1	1	11.94	2.98	True	True	11.93262791633606	14.915980100631714	[['a', 13.159524202346802]]	-2.0	unseen	False	True	1.2195242023468025	2.9833521842956543	1.0	2.0	1618412485.7738	False		False			
2	ses-001	4	images_fmri/powder/powder_03s.jpg	unseen	5919	494	3	None	1237.0	17592.0	3.0	unseen-within	1	1	16.41	2.98	False	False	16.401467084884644	19.38245010375977	[['y', 17.61392903327942]]	-2.0	unseen	False	True	1.2039290332794188	2.980983018875122	1.0	3.0	1618412490.2427	False		False			
2	ses-001	5	images_fmri/headlamp/headlamp_03s.jpg	unseen	3687	308	3	None	765.0	10954.0	3.0	unseen-within	1	1	20.88	2.98	False	True	20.86774706840515	23.84695291519165	[['y', 22.14275813102722]]	-2.0	unseen	False	True	1.262758131027223	2.979205846786499	1.0	4.0	1618412494.7089	False		False			
2	ses-001	6	images_fmri/chair/chair_03s.jpg	unseen	1539	129	3	None	301.0	4385.0	3.0	unseen-within	1	1	25.35	2.98	True	False	25.3354389667511	28.317296028137207	[['a', 26.493467092514038]]	-2.0	unseen	False	True	1.1434670925140369	2.9818570613861084	1.0	5.0	1618412499.1766	False		False			
2	ses-001	7	images_fmri/overalls/overalls_03s.jpg	unseen	5199	434	3	None	1091.0	15523.0	3.0	unseen-within	1	1	29.82	2.98	True	True	29.81565999984741	32.783864974975586	[['a', 31.010626077651978]]	-2.0	unseen	False	True	1.1906260776519773	2.968204975128174	1.0	6.0	1618412503.6569	False		False			
2	ses-001	8	images_fmri/waffle_iron/waffle_iron_03s.jpg	unseen	8235	687	3	None	1772.0	24981.0	3.0	unseen-within	1	1	34.29	2.98	False	False	34.282264947891235	37.26353406906128	[['y', 35.73884916305542]]	-2.0	unseen	False	True	1.4488491630554208	2.981269121170044	1.0	7.0	1618412508.1235	False		False			
2	ses-001	9	images_fmri/leggings/leggings_03s.jpg	unseen	4299	359	3	None	913.0	13057.0	3.0	unseen-within	1	1	38.76	2.98	True	False	38.75184488296509	41.730140924453735	[['a', 40.111454010009766]]	-2.0	unseen	False	True	1.3514540100097676	2.9782960414886475	1.0	8.0	1618412512.593	False		False			
2	ses-001	10	images_fmri/leggings/leggings_03s.jpg	seen	4299	359	3	None	913.0	13057.0	3.0	seen-within	2	1	43.23	2.98	True	True	43.21802496910095	46.19761300086975	[['b', 45.00169801712036]]	2.0	seen	False	True	1.7716980171203645	2.979588031768799	1.0	9.0	1618412517.0592	False		False	0.0	4.466200113296509	1.0
2	ses-001	11	images_fmri/meatball/meatball_03s.jpg	unseen	4731	395	3	None	990.0	14098.0	3.0	unseen-within	1	1	47.7	2.98	True	False	47.68458700180054	50.66661596298218	[['a', 48.82738518714905]]	-2.0	unseen	False	True	1.127385187149045	2.9820289611816406	1.0	10.0	1618412521.5258	False		False			
2	ses-001	12	images_fmri/easel/easel_03s.jpg	unseen	2691	225	3	None	543.0	7880.0	3.0	unseen-within	1	1	52.17	2.98	True	True	52.16497087478638	55.12944889068604	[['a', 53.35173320770264]]	-2.0	unseen	False	True	1.181733207702635	2.964478015899658	1.0	11.0	1618412526.0062	False		False			
2	ses-001	13	images_fmri/sandpaper/sandpaper_03s.jpg	unseen	6435	537	3	None	1357.0	19299.0	3.0	unseen-within	1	1	56.64	2.98	False	True	56.6333110332489	59.61385703086853	[['y', 58.02349615097046]]	-2.0	unseen	False	True	1.3834961509704584	2.980545997619629	1.0	12.0	1618412530.4745	False		False			
2	ses-001	14	images_fmri/trap/trap_03s.jpg	unseen	7935	662	3	None	1703.0	24021.0	3.0	unseen-within	1	1	61.11	2.98	False	True	61.09968090057373	64.07927203178406	[['y', 62.648404121398926]]	-2.0	unseen	False	True	1.5384041213989263	2.979591131210327	1.0	13.0	1618412534.9409	False		False			
2	ses-001	15	images_fmri/lego/lego_03s.jpg	unseen	4311	360	3	None	914.0	13069.0	3.0	unseen-between	1	1	65.58	2.98	False	False	65.56718707084656	68.54841208457947	[['y', 67.16041111946106]]	-2.0	unseen	False	True	1.5804111194610613	2.98122501373291	1.0	14.0	1618412539.4084	False		False			
2	ses-001	16	images_fmri/whale/whale_03s.jpg	unseen	8403	701	3	None	1805.0	25427.0	3.0	unseen-between	1	1	70.05	2.98	False	True	70.03286600112915	73.01226806640625	[['y', 71.40376400947571]]	-2.0	unseen	False	True	1.3537640094757108	2.9794020652771	1.0	15.0	1618412543.8741	False		False			
2	ses-001	17	images_fmri/stopwatch/stopwatch_03s.jpg	unseen	7251	605	3	None	1563.0	22072.0	3.0	unseen-between	1	1	74.52	2.98	True	False	74.51429295539856	77.48176503181458	[['a', 76.17914199829102]]	-2.0	unseen	False	True	1.6591419982910196	2.967472076416016	1.0	16.0	1618412548.3555	False		False			
2	ses-001	18	images_fmri/overalls/overalls_03s.jpg	seen	5199	434	3	None	1091.0	15523.0	3.0	seen-within	2	1	78.99	2.98	False	True	78.98288798332214	81.9621229171753	[['b', 81.52752113342285]]	2.0	seen	False	True	2.5375211334228567	2.9792349338531494	1.0	17.0	1618412552.8241	False		False	0.0	49.16720008850098	11.0
2	ses-001	19	images_fmri/diaper/diaper_03s.jpg	unseen	2391	200	3	None	486.0	7029.0	3.0	unseen-between	1	1	83.46	2.98	False	False	83.45038890838623	86.42935109138489	[['y', 84.65643310546875]]	-2.0	unseen	False	True	1.1964331054687565	2.978962182998657	1.0	18.0	1618412557.2916	False		False			
2	ses-001	20	images_fmri/dice/dice_03s.jpg	unseen	2403	201	3	None	487.0	7041.0	3.0	unseen-within	1	1	87.92999999999998	2.98	False	False	87.91607189178467	90.89505791664124	[['y', 89.48900198936462]]	-2.0	unseen	False	True	1.5590019893646456	2.9789860248565674	1.0	19.0	1618412561.7573	False		False			
2	ses-001	21	images_fmri/pothole/pothole_03n.jpg	unseen	5907	493	3	None	1234.0	17548.0	3.0	unseen-within	1	1	92.4	2.98	False	False	92.398668050766	95.36448907852171	[['y', 93.96305918693542]]	-2.0	unseen	False	True	1.5630591869354191	2.9658210277557373	1.0	20.0	1618412566.2399	False		False			
2	ses-001	22	images_fmri/fondue/fondue_03s.jpg	unseen	3051	255	3	None	627.0	9047.0	3.0	unseen-within	1	1	96.87	2.98	False	True	96.86392188072205	99.82824087142944	[['y', 98.37111401557922]]	-2.0	unseen	False	True	1.501114015579219	2.964318990707397	1.0	21.0	1618412570.7051	False		False			
2	ses-001	23	images_fmri/lingerie/lingerie_03s.jpg	unseen	4419	369	3	None	933.0	13322.0	3.0	unseen-between	1	1	101.34	2.98	False	False	101.32814407348631	104.3116729259491	[['y', 102.99115300178528]]	-2.0	unseen	False	True	1.651153001785275	2.983528852462769	1.0	22.0	1618412575.1693	False		False			
2	ses-001	24	images_fmri/sweatsuit/sweatsuit_03s.jpg	unseen	7407	618	3	None	1594.0	22521.0	3.0	unseen-within	1	1	105.81	2.98	True	True	105.80004906654358	108.77799797058104	[['a', 107.3294050693512]]	-2.0	unseen	False	True	1.519405069351194	2.977948904037476	1.0	23.0	1618412579.6412	False		False			
2	ses-001	25	images_fmri/crayfish/crayfish_03s.jpg	unseen	2151	180	3	None	435.0	6285.0	3.0	unseen-within	1	1	110.28	2.98	True	True	110.26625990867616	113.24502110481262	[['a', 111.9702000617981]]	-2.0	unseen	False	True	1.6902000617980946	2.9787611961364746	1.0	24.0	1618412584.1075	False		False			
2	ses-001	26	images_fmri/pothole/pothole_03n.jpg	seen	5907	493	3	None	1234.0	17548.0	3.0	seen-within	2	1	114.75	2.98	False	False	114.74798393249512	117.71374797821044	[['x', 116.34602904319763]]	2.0	seen	False	True	1.5960290431976318	2.965764045715332	1.0	25.0	1618412588.5892	False		False	0.0	22.34929990768433	5.0
2	ses-001	27	images_fmri/cranberry/cranberry_03n.jpg	unseen	2115	177	3	None	431.0	6220.0	3.0	unseen-within	1	1	119.22	2.98	False	False	119.21313309669496	122.19446301460266	[['y', 120.57003903388977]]	-2.0	unseen	False	True	1.3500390338897716	2.981329917907715	1.0	26.0	1618412593.0543	False		False			
2	ses-001	28	images_fmri/bell/bell_03s.jpg	unseen	579	49	3	None	117.0	1783.0	3.0	unseen-within	1	1	123.69	2.98	False	False	123.67808890342712	126.66104793548584	[['y', 125.05136609077454]]	-2.0	unseen	False	True	1.3613660907745384	2.982959032058716	1.0	27.0	1618412597.5193	False		False			
2	ses-001	29	images_fmri/coconut/coconut_03s.jpg	unseen	1875	157	3	None	376.0	5415.0	3.0	unseen-between	1	1	128.16	2.98	False	False	128.14690589904785	131.12733387947085	[['y', 129.59506821632385]]	-2.0	unseen	False	True	1.435068216323856	2.9804279804229736	1.0	28.0	1618412601.9881	False		False			
2	ses-001	30	images_fmri/chair/chair_03s.jpg	seen	1539	129	3	None	301.0	4385.0	3.0	seen-within	2	1	132.63	2.98	True	False	132.61468887329102	135.59461998939514	[['x', 134.16912317276]]	2.0	seen	False	True	1.5391231727600143	2.979931116104126	1.0	29.0	1618412606.4559	False		False	0.0	107.27929997444151	24.0
2	ses-001	31	images_fmri/mousse/mousse_03s.jpg	unseen	4959	414	3	None	1031.0	14699.0	3.0	unseen-within	1	1	137.1	2.98	True	True	137.09631395339966	140.0639569759369	[['a', 138.61390113830566]]	-2.0	unseen	False	True	1.5139011383056695	2.9676430225372314	1.0	30.0	1618412610.9375	False		False			
2	ses-001	32	images_fmri/telescope/telescope_03n.jpg	seen	7599	634	3	None	1641.0	23165.0	3.0	seen-within	2	1	141.57	2.98	False	False	141.56649494171145	144.54395389556885	[['x', 142.83723616600037]]	2.0	seen	False	True	1.267236166000373	2.977458953857422	1.0	31.0	1618412615.4077	False		False	0.0	138.58070015907288	31.0
2	ses-001	33	images_fmri/crayfish/crayfish_03s.jpg	seen	2151	180	3	None	435.0	6285.0	3.0	seen-within	2	1	146.04	2.98	True	True	146.02698707580566	149.01061487197876	[['b', 147.33791303634644]]	2.0	seen	False	True	1.2979130363464435	2.983627796173096	1.0	32.0	1618412619.8682	False		False	0.0	35.7606999874115	8.0
2	ses-001	34	images_fmri/sweatsuit/sweatsuit_03s.jpg	seen	7407	618	3	None	1594.0	22521.0	3.0	seen-within	2	1	150.51	2.98	True	False	150.498703956604	153.47709703445437	[['x', 151.98791217803955]]	2.0	seen	False	True	1.47791217803956	2.978393077850342	1.0	33.0	1618412624.3399	False		False	0.0	44.69869995117188	10.0
2	ses-001	35	images_fmri/suit/suit_03s.jpg	unseen	7335	612	3	None	1581.0	22321.0	3.0	unseen-within	1	1	154.98	2.98	True	False	154.96391201019287	157.94734001159668	[['a', 156.09878206253052]]	-2.0	unseen	False	True	1.1187820625305278	2.9834280014038086	1.0	34.0	1618412628.8051	False		False			
2	ses-001	36	images_fmri/bell/bell_03s.jpg	seen	579	49	3	None	117.0	1783.0	3.0	seen-within	2	1	159.45	2.98	True	False	159.44539594650269	162.4102668762207	[['x', 160.91695404052734]]	2.0	seen	False	True	1.4669540405273551	2.9648709297180176	1.0	35.0	1618412633.2866	False		False	0.0	35.76730012893677	8.0
2	ses-001	37	images_fmri/hammer/hammer_03s.jpg	unseen	3591	300	3	None	742.0	10633.0	3.0	unseen-between	1	1	163.92	2.98	True	True	163.9103488922119	166.89533495903015	[['a', 165.17160201072693]]	-2.0	unseen	False	True	1.2516020107269412	2.9849860668182373	1.0	36.0	1618412637.7515	False		False			
2	ses-001	38	images_fmri/razor/razor_03s.jpg	unseen	6171	515	3	None	1291.0	18372.0	3.0	unseen-within	1	1	168.39	2.98	False	True	168.3769190311432	171.35975003242493	[['y', 170.084547996521]]	-2.0	unseen	False	True	1.6945479965210095	2.9828310012817383	1.0	37.0	1618412642.2181	False		False			
2	ses-001	39	images_fmri/popcorn/popcorn_03s.jpg	unseen	5823	486	3	None	1224.0	17413.0	3.0	unseen-within	1	1	172.86	2.98	True	True	172.84675288200378	175.82772994041443	[['a', 174.27365612983704]]	-2.0	unseen	False	True	1.4136561298370225	2.9809770584106445	1.0	38.0	1618412646.6879	False		False			
2	ses-001	40	images_fmri/pan/pan_03s.jpg	seen	5271	440	3	None	1104.0	15707.0	3.0	seen-within	2	1	177.32999999999996	2.98	False	False	177.3143138885498	180.29273104667664	[['y', 178.54572010040283]]	-2.0	unseen	True	True	1.2157201004028764	2.978417158126831	1.0	39.0	1618412651.1555	False		False	0.0	165.3817000389099	37.0
2	ses-001	41	images_fmri/beetle/beetle_03s.jpg	unseen	567	48	3	None	116.0	1768.0	3.0	unseen-within	1	1	181.8	2.98	False	True	181.79631400108337	184.7623720169068	[['y', 183.80357003211975]]	-2.0	unseen	False	True	2.00357003211974	2.9660580158233643	1.0	40.0	1618412655.6375	False		False			
2	ses-001	42	images_fmri/silverware/silverware_03s.jpg	unseen	6771	565	3	None	1446.0	20505.0	3.0	unseen-between	1	1	186.27	2.98	False	False	186.2593610286713	189.24304294586184	[['y', 187.7206711769104]]	-2.0	unseen	False	True	1.4506711769103902	2.983681917190552	1.0	41.0	1618412660.1006	False		False			
2	ses-001	43	images_fmri/headlamp/headlamp_03s.jpg	seen	3687	308	3	None	765.0	10954.0	3.0	seen-within	2	1	190.74	2.98	True	True	190.73032093048096	193.70921301841736	[['a', 193.10375905036926]]	-2.0	unseen	True	True	2.3637590503692536	2.9788920879364014	1.0	42.0	1618412664.5715	False		False	0.0	169.8626000881195	38.0
2	ses-001	44	images_fmri/cranberry/cranberry_03n.jpg	seen	2115	177	3	None	431.0	6220.0	3.0	seen-within	2	1	195.21	2.98	False	True	195.19631099700928	198.17969393730164	[['b', 196.21885800361633]]	2.0	seen	False	True	1.008858003616325	2.9833829402923584	1.0	43.0	1618412669.0375	False		False	0.0	75.98319983482361	17.0
2	ses-001	45	images_fmri/suit/suit_03s.jpg	seen	7335	612	3	None	1581.0	22321.0	3.0	seen-within	2	1	199.68	2.98	True	False	199.66338992118835	202.6462709903717	[['x', 200.67517805099487]]	2.0	seen	False	True	0.9951780509948662	2.9828810691833496	1.0	44.0	1618412673.5046	False		False	0.0	44.69950008392334	10.0
2	ses-001	46	images_fmri/fondue/fondue_03s.jpg	seen	3051	255	3	None	627.0	9047.0	3.0	seen-within	2	1	204.15	2.98	False	False	204.14445900917053	207.1126129627228	[['x', 205.3657820224762]]	2.0	seen	False	True	1.2157820224761906	2.968153953552246	1.0	45.0	1618412677.9857	False		False	0.0	107.2805998325348	24.0
2	ses-001	47	images_fmri/easel/easel_03s.jpg	seen	2691	225	3	None	543.0	7880.0	3.0	seen-within	2	1	208.62	2.98	True	True	208.61321187019348	211.5942389965057	[['b', 209.7232630252838]]	2.0	seen	False	True	1.103263025283809	2.981027126312256	1.0	46.0	1618412682.4544	False		False	0.0	156.4481999874115	35.0
2	ses-001	48	images_fmri/powder/powder_03s.jpg	seen	5919	494	3	None	1237.0	17592.0	3.0	seen-within	2	1	213.09	2.98	False	True	213.0786988735199	216.0635890960693	[['b', 214.36943006515503]]	2.0	seen	False	True	1.279430065155026	2.9848902225494385	1.0	47.0	1618412686.9199	False		False	0.0	196.67719984054563	44.0
2	ses-001	49	images_fmri/pillow/pillow_03s.jpg	unseen	5607	468	3	None	1177.0	16743.0	3.0	unseen-within	1	1	217.56	2.98	False	True	217.54560208320612	220.5286090373993	[['y', 218.57245421409607]]	-2.0	unseen	False	True	1.012454214096067	2.9830069541931152	1.0	48.0	1618412691.3868	False		False			
2	ses-001	50	images_fmri/banana_split/banana_split_03s.jpg	unseen	363	31	3	None	66.0	980.0	3.0	unseen-between	1	1	222.03	2.98	True	False	222.01211810112	224.9942409992218	[['a', 223.86949610710144]]	-2.0	unseen	False	True	1.8394961071014395	2.982122898101806	1.0	49.0	1618412695.8533	False		False			
2	ses-001	51	images_fmri/razor/razor_03s.jpg	seen	6171	515	3	None	1291.0	18372.0	3.0	seen-within	2	1	226.5	2.98	False	False	226.4936969280243	229.46191906929016	[['x', 227.8072350025177]]	2.0	seen	False	True	1.3072350025177002	2.968222141265869	1.0	50.0	1618412700.3349	False		False	0.0	58.11679983139038	13.0
2	ses-001	52	images_fmri/trap/trap_03s.jpg	seen	7935	662	3	None	1703.0	24021.0	3.0	seen-within	2	1	230.97	2.98	False	True	230.95721888542167	233.9442188739777	[['b', 232.05340814590454]]	2.0	seen	False	True	1.0834081459045422	2.986999988555908	1.0	51.0	1618412704.7984	False		False	0.0	169.85749983787537	38.0
2	ses-001	53	images_fmri/pillow/pillow_03s.jpg	seen	5607	468	3	None	1177.0	16743.0	3.0	seen-within	2	1	235.44	2.98	False	True	235.4292368888855	238.40862894058228	[['b', 236.46055102348328]]	2.0	seen	False	True	1.0205510234832786	2.9793920516967773	1.0	52.0	1618412709.2704	False		False	0.0	17.883599996566772	4.0
2	ses-001	54	images_fmri/moth/moth_03n.jpg	unseen	4911	410	3	None	1024.0	14587.0	3.0	unseen-between	1	1	239.91	2.98	True	False	239.8977789878845	242.87532305717468	[['a', 241.42107820510864]]	-2.0	unseen	False	True	1.511078205108646	2.977544069290161	1.0	53.0	1618412713.739	False		False			
2	ses-001	55	images_fmri/waffle_iron/waffle_iron_03s.jpg	seen	8235	687	3	None	1772.0	24981.0	3.0	seen-within	2	1	244.38	2.98	True	False	244.37675404548645	247.3453249931336	[['x', 245.54488110542297]]	2.0	seen	False	True	1.1648811054229782	2.9685709476470947	1.0	54.0	1618412718.218	False		False	0.0	210.09449982643127	47.0
2	ses-001	56	images_fmri/lobster/lobster_03s.jpg	unseen	4479	374	3	None	940.0	13420.0	3.0	unseen-between	1	1	248.85	2.98	True	True	248.84316086769104	251.8252859115601	[['a', 250.6139361858368]]	-2.0	unseen	False	True	1.7639361858367977	2.9821250438690186	1.0	55.0	1618412722.6844	False		False			
2	ses-001	57	images_fmri/beachball/beachball_03s.jpg	unseen	459	39	3	None	100.0	1497.0	3.0	unseen-within	1	1	253.32	2.98	True	True	253.3113579750061	256.29524302482605	[['a', 254.42021298408508]]	-2.0	unseen	False	True	1.1002129840850898	2.9838850498199463	1.0	56.0	1618412727.1526	False		False			
2	ses-001	58	images_fmri/mousse/mousse_03s.jpg	seen	4959	414	3	None	1031.0	14699.0	3.0	seen-within	2	1	257.79	2.98	True	True	257.7779350280762	260.76348209381104	[['b', 258.8610031604767]]	2.0	seen	False	True	1.071003160476664	2.985547065734864	1.0	57.0	1618412731.6191	False		False	0.0	120.68160009384157	27.0
2	ses-001	59	images_fmri/dishwasher/dishwasher_03s.jpg	unseen	2439	204	3	None	492.0	7115.0	3.0	unseen-between	1	1	262.26	2.98	True	True	262.24445104599	265.2241139411926	[['a', 263.37006402015686]]	-2.0	unseen	False	True	1.1100640201568694	2.9796628952026367	1.0	58.0	1618412736.0856	False		False			
2	ses-001	60	images_fmri/tie/tie_03s.jpg	unseen	7707	643	3	None	1659.0	23416.0	3.0	unseen-within	1	1	266.73	2.98	True	False	266.72754406929016	269.69450187683105	[['a', 267.74615812301636]]	-2.0	unseen	False	True	1.0161581230163392	2.9669578075408936	1.0	59.0	1618412740.5687	False		False			
2	ses-001	1	images_fmri/hula_hoop/hula_hoop_03s.jpg	unseen	3891	325	3	None	811.0	11596.0	3.0	unseen-between	1	2	3.0	2.98	False	True	2.98323392868042	5.964339017868042	[['y', 4.658507823944092]]	-2.0	unseen	False	True	1.6585078239440918	2.981105089187622	1.0	0.0	1618412851.2979	False		False			
2	ses-001	2	images_fmri/thermostat/thermostat_03s.jpg	unseen	7659	639	3	None	1649.0	23284.0	3.0	unseen-within	1	2	7.47	2.98	False	False	7.451366901397705	10.430999994277954	[['y', 9.276171922683716]]	-2.0	unseen	False	True	1.806171922683716	2.979633092880249	1.0	1.0	1618412855.7661	False		False			
2	ses-001	3	images_fmri/airplane/airplane_03n.jpg	unseen	39	4	3	None	11.0	152.0	3.0	unseen-within	1	2	11.94	2.98	False	True	11.91935896873474	14.89788007736206	[['y', 13.374191999435425]]	-2.0	unseen	False	True	1.4341919994354253	2.97852110862732	1.0	2.0	1618412860.2341	False		False			
2	ses-001	4	images_fmri/limousine/limousine_03s.jpg	unseen	4407	368	3	None	932.0	13307.0	3.0	unseen-between	1	2	16.41	2.98	True	False	16.38518786430359	19.36705207824707	[['a', 17.986403942108154]]	-2.0	unseen	False	True	1.5764039421081542	2.981864213943481	1.0	3.0	1618412864.6999	False		False			
2	ses-001	5	images_fmri/milk/milk_03s.jpg	unseen	4779	399	3	None	1002.0	14262.0	3.0	unseen-within	1	2	20.88	2.98	False	False	20.86624789237976	23.8334219455719	[['y', 22.269301891326904]]	-2.0	unseen	False	True	1.3893018913269053	2.9671740531921387	1.0	4.0	1618412869.181	False		False			
2	ses-001	6	images_fmri/soy_sauce/soy_sauce_03s.jpg	unseen	6999	584	3	None	1501.0	21235.0	3.0	unseen-between	1	2	25.35	2.98	False	True	25.33424687385559	28.3152539730072	[['y', 27.003902912139893]]	-2.0	unseen	False	True	1.6539029121398912	2.981007099151612	1.0	5.0	1618412873.649	False		False			
2	ses-001	7	images_fmri/pogo_stick/pogo_stick_03s.jpg	unseen	5775	482	3	None	1209.0	17179.0	3.0	unseen-between	1	2	29.82	2.98	False	True	29.80045485496521	32.780717849731445	[['y', 31.260130882263184]]	-2.0	unseen	False	True	1.4401308822631833	2.980262994766236	1.0	6.0	1618412878.1152	False		False			
2	ses-001	8	images_fmri/game/game_03s.jpg	unseen	3147	263	3	None	655.0	9409.0	3.0	unseen-within	1	2	34.29	2.98	True	True	34.267263889312744	37.24678301811218	[['a', 35.767926931381226]]	-2.0	unseen	False	True	1.4779269313812264	2.9795191287994385	1.0	7.0	1618412882.582	False		False			
2	ses-001	9	images_fmri/jeans/jeans_03s.jpg	unseen	3999	334	3	None	843.0	12048.0	3.0	unseen-within	1	2	38.76	2.98	False	False	38.73498702049256	41.71602892875672	[['y', 40.32992887496948]]	-2.0	unseen	False	True	1.5699288749694844	2.98104190826416	1.0	8.0	1618412887.0497	False		False			
2	ses-001	10	images_fmri/beaver/beaver_03s.jpg	unseen	507	43	3	None	108.0	1630.0	3.0	unseen-between	1	2	43.23	2.98	True	True	43.21560287475586	46.18409490585327	[['a', 44.51221585273743]]	-2.0	unseen	False	True	1.28221585273743	2.968492031097412	1.0	9.0	1618412891.5303	False		False			
2	ses-001	11	images_fmri/mask/mask_03s.jpg	unseen	4671	390	3	None	981.0	13979.0	3.0	unseen-within	1	2	47.7	2.98	True	False	47.68341684341431	50.665509939193726	[['a', 48.91154479980469]]	-2.0	unseen	False	True	1.2115447998046849	2.982093095779419	1.0	10.0	1618412895.9981	False		False			
2	ses-001	12	images_fmri/beachball/beachball_03s.jpg	seen	459	39	3	None	100.0	1497.0	3.0	seen-within	2	2	52.17	2.98	True	False	52.15152907371521	55.12977695465088	[['x', 53.35422897338867]]	2.0	seen	False	True	1.1842289733886702	2.978247880935669	1.0	11.0	1618412900.4662	False		False	0.0	173.31360006332395	15.0
2	ses-001	13	images_fmri/beetle/beetle_03s.jpg	seen	567	48	3	None	116.0	1768.0	3.0	seen-within	2	2	56.64	2.98	True	False	56.61672306060791	59.600297927856445	[['x', 57.727935791015625]]	2.0	seen	False	True	1.0879357910156244	2.983574867248535	1.0	12.0	1618412904.9314	False		False	0.0	249.29390001297	32.0
2	ses-001	14	images_fmri/thermostat/thermostat_03s.jpg	seen	7659	639	3	None	1649.0	23284.0	3.0	seen-within	2	2	61.11	2.98	True	True	61.09937787055969	64.06784892082214	[['b', 62.199585914611816]]	2.0	seen	False	True	1.089585914611817	2.968471050262451	1.0	13.0	1618412909.4141	False		False	0.0	53.64800000190735	12.0
2	ses-001	15	images_fmri/kale/kale_03s.jpg	unseen	4059	339	3	None	861.0	12308.0	3.0	unseen-within	1	2	65.58	2.98	False	False	65.56303596496582	68.52936601638794	[['y', 66.81794095039368]]	-2.0	unseen	False	True	1.2379409503936785	2.966330051422119	1.0	14.0	1618412913.8777	False		False			
2	ses-001	16	images_fmri/bottle/bottle_03s.jpg	unseen	867	73	3	None	171.0	2598.0	3.0	unseen-within	1	2	70.05	2.98	False	False	70.03015494346619	73.01285099983215	[['y', 71.13074994087219]]	-2.0	unseen	False	True	1.0807499408721952	2.982696056365967	1.0	15.0	1618412918.3449	False		False			
2	ses-001	17	images_fmri/gearshift/gearshift_03n.jpg	unseen	3219	269	3	None	669.0	9587.0	3.0	unseen-between	1	2	74.52	2.98	True	False	74.49598288536072	77.47824192047119	[['a', 75.87918996810913]]	-2.0	unseen	False	True	1.3591899681091348	2.9822590351104736	1.0	16.0	1618412922.8107	False		False			
2	ses-001	18	images_fmri/girl/girl_03s.jpg	unseen	3255	272	3	None	677.0	9697.0	3.0	unseen-within	1	2	78.99	2.98	False	True	78.96279096603394	81.94740390777588	[['y', 80.19407892227173]]	-2.0	unseen	False	True	1.2040789222717336	2.984612941741944	1.0	17.0	1618412927.2775	False		False			
2	ses-001	19	images_fmri/mask/mask_03s.jpg	seen	4671	390	3	None	981.0	13979.0	3.0	seen-within	2	2	83.46	2.98	True	False	83.44589400291443	86.41238498687744	[['x', 84.5807797908783]]	2.0	seen	False	True	1.1207797908783022	2.9664909839630127	1.0	18.0	1618412931.7606	False		False	0.0	35.76250004768372	8.0
2	ses-001	20	images_fmri/uniform/uniform_03s.jpg	unseen	8139	679	3	None	1748.0	24631.0	3.0	unseen-between	1	2	87.92999999999998	2.98	True	False	87.91447806358337	90.89785504341124	[['a', 89.12757277488708]]	-2.0	unseen	False	True	1.1975727748871066	2.983376979827881	1.0	19.0	1618412936.2292	False		False			
2	ses-001	21	images_fmri/mosquito/mosquito_03s.jpg	unseen	4887	408	3	None	1021.0	14543.0	3.0	unseen-between	1	2	92.4	2.98	True	False	92.38411688804626	95.36524701118468	[['a', 93.67682981491089]]	-2.0	unseen	False	True	1.276829814910883	2.981130123138428	1.0	20.0	1618412940.6988	False		False			
2	ses-001	22	images_fmri/boot/boot_03s.jpg	unseen	855	72	3	None	170.0	2582.0	3.0	unseen-within	1	2	96.87	2.98	True	False	96.85071992874146	99.8328149318695	[['a', 98.02579689025879]]	-2.0	unseen	False	True	1.1557968902587843	2.982095003128052	1.0	21.0	1618412945.1654	False		False			
2	ses-001	23	images_fmri/sink/sink_03s.jpg	unseen	6795	567	3	None	1448.0	20531.0	3.0	unseen-within	1	2	101.34	2.98	True	True	101.31588292121889	104.30064392089844	[['a', 102.53488087654114]]	-2.0	unseen	False	True	1.1948808765411345	2.984760999679565	1.0	22.0	1618412949.6306	False		False			
2	ses-001	24	images_fmri/barnacle/barnacle_03s.jpg	unseen	399	34	3	None	76.0	1126.0	3.0	unseen-within	1	2	105.81	2.98	False	True	105.79739785194396	108.76511096954346	[['y', 107.61814379692078]]	-2.0	unseen	False	True	1.808143796920774	2.967713117599488	1.0	23.0	1618412954.1121	False		False			
2	ses-001	25	images_fmri/noodle/noodle_03s.jpg	unseen	5079	424	3	None	1062.0	15108.0	3.0	unseen-between	1	2	110.28	2.98	False	True	110.26390504837036	113.24513006210329	[['y', 111.35456895828247]]	-2.0	unseen	False	True	1.0745689582824696	2.98122501373291	1.0	24.0	1618412958.5786	False		False			
2	ses-001	26	images_fmri/honeycomb/honeycomb_03s.jpg	unseen	3795	317	3	None	790.0	11297.0	3.0	unseen-within	1	2	114.75	2.98	True	True	114.73253893852234	117.71196699142456	[['a', 116.19505190849304]]	-2.0	unseen	False	True	1.445051908493042	2.9794280529022217	1.0	25.0	1618412963.0472	False		False			
2	ses-001	27	images_fmri/popcorn/popcorn_03s.jpg	seen	5823	486	3	None	1224.0	17413.0	3.0	seen-within	2	2	119.22	2.98	False	True	119.20019102096558	122.17829585075378	[['b', 120.64228582382202]]	2.0	seen	False	True	1.4222858238220226	2.978104829788208	1.0	26.0	1618412967.5149	False		False	0.0	320.8269999027252	48.0
2	ses-001	28	images_fmri/prism/prism_03s.jpg	unseen	5955	497	3	None	1242.0	17664.0	3.0	unseen-between	1	2	123.69	2.98	True	False	123.66514706611632	126.64737105369568	[['a', 125.7747449874878]]	-2.0	unseen	False	True	2.0847449874877952	2.9822239875793457	1.0	27.0	1618412971.9799	False		False			
2	ses-001	29	images_fmri/railing/railing_03s.jpg	unseen	6123	511	3	None	1278.0	18199.0	3.0	unseen-within	1	2	128.16	2.98	True	False	128.1495180130005	131.1150460243225	[['a', 129.24028778076172]]	-2.0	unseen	False	True	1.0802877807617222	2.965528011322021	1.0	28.0	1618412976.4642	False		False			
2	ses-001	30	images_fmri/jeans/jeans_03s.jpg	seen	3999	334	3	None	843.0	12048.0	3.0	seen-within	2	2	132.63	2.98	False	False	132.61492896080017	135.5967619419098	[['x', 133.83689379692078]]	2.0	seen	False	True	1.206893796920781	2.981832981109619	1.0	29.0	1618412980.9296	False		False	0.0	93.8798999786377	21.0
2	ses-001	31	images_fmri/scarecrow/scarecrow_03s.jpg	unseen	6495	542	3	None	1377.0	19556.0	3.0	unseen-between	1	2	137.1	2.98	False	True	137.08145594596863	140.0609369277954	[['y', 138.7162528038025]]	-2.0	unseen	False	True	1.616252803802496	2.9794809818267822	1.0	30.0	1618412985.3962	False		False			
2	ses-001	32	images_fmri/dice/dice_03s.jpg	seen	2403	201	3	None	487.0	7041.0	3.0	seen-within	2	2	141.57	2.98	False	True	141.54798984527588	144.52745294570923	[['b', 143.145094871521]]	2.0	seen	False	True	1.575094871521003	2.9794631004333496	1.0	31.0	1618412989.8627	False		False	0.0	428.1054000854492	72.0
2	ses-001	33	images_fmri/mailbox/mailbox_03s.jpg	unseen	4551	380	3	None	961.0	13688.0	3.0	unseen-between	1	2	146.04	2.98	True	True	146.01315784454346	148.99913096427915	[['a', 147.21395778656006]]	-2.0	unseen	False	True	1.1739577865600666	2.9859731197357178	1.0	32.0	1618412994.3279	False		False			
2	ses-001	34	images_fmri/broccoli/broccoli_03s.jpg	unseen	1011	85	3	None	202.0	3050.0	3.0	unseen-within	1	2	150.51	2.98	False	False	150.4982409477234	153.46325397491455	[['y', 151.8279299736023]]	-2.0	unseen	False	True	1.317929973602304	2.965013027191162	1.0	33.0	1618412998.8129	False		False			
2	ses-001	35	images_fmri/parsley/parsley_03s.jpg	unseen	5367	448	3	None	1123.0	15994.0	3.0	unseen-within	1	2	154.98	2.98	True	False	154.96449303627014	157.94386887550354	[['a', 156.55251789093018]]	-2.0	unseen	False	True	1.572517890930186	2.9793758392333984	1.0	34.0	1618413003.2792	False		False			
2	ses-001	36	images_fmri/poster/poster_03s.jpg	unseen	5871	490	3	None	1230.0	17492.0	3.0	unseen-between	1	2	159.45	2.98	True	False	159.43060898780823	162.41024899482727	[['a', 161.10224986076355]]	-2.0	unseen	False	True	1.6522498607635612	2.979640007019043	1.0	35.0	1618413007.7453	False		False			
2	ses-001	37	images_fmri/raft/raft_03s.jpg	unseen	6111	510	3	None	1276.0	18174.0	3.0	unseen-between	1	2	163.92	2.98	False	True	163.89762902259827	166.8798599243164	[['y', 165.37335991859436]]	-2.0	unseen	False	True	1.4533599185943729	2.98223090171814	1.0	36.0	1618413012.2123	False		False			
2	ses-001	38	images_fmri/milk/milk_03s.jpg	seen	4779	399	3	None	1002.0	14262.0	3.0	seen-within	2	2	168.39	2.98	False	False	168.36447191238403	171.34367084503174	[['x', 169.86316084861755]]	2.0	seen	False	True	1.4731608486175674	2.979198932647705	1.0	37.0	1618413016.6792	False		False	0.0	147.49819993972778	33.0
2	ses-001	39	images_fmri/kangaroo/kangaroo_03n.jpg	unseen	4071	340	3	None	863.0	12335.0	3.0	unseen-between	1	2	172.86	2.98	True	True	172.8456358909607	175.81338691711426	[['a', 174.10916590690613]]	-2.0	unseen	False	True	1.2491659069061145	2.9677510261535645	1.0	38.0	1618413021.1603	False		False			
2	ses-001	40	images_fmri/thimble/thimble_03n.jpg	unseen	7671	640	3	None	1650.0	23300.0	3.0	unseen-between	1	2	177.32999999999996	2.98	False	False	177.3099009990692	180.29351902008057	[['y', 178.6732039451599]]	-2.0	unseen	False	True	1.3432039451599564	2.9836180210113525	1.0	39.0	1618413025.6246	False		False			
2	ses-001	41	images_fmri/bottle/bottle_03s.jpg	seen	867	73	3	None	171.0	2598.0	3.0	seen-within	2	2	181.8	2.98	True	True	181.7803089618683	184.75986790657043	[['b', 183.57307291030884]]	2.0	seen	False	True	1.7730729103088263	2.9795589447021484	1.0	40.0	1618413030.095	False		False	0.0	111.75010013580322	25.0
2	ses-001	42	images_fmri/airplane/airplane_03n.jpg	seen	39	4	3	None	11.0	152.0	3.0	seen-within	2	2	186.27	2.98	True	False	186.24686288833612	189.231498003006	[['x', 187.3988218307495]]	2.0	seen	False	True	1.1288218307495017	2.9846351146698	1.0	41.0	1618413034.5616	False		False	0.0	174.3274998664856	39.0
2	ses-001	43	images_fmri/sandpaper/sandpaper_03s.jpg	seen	6435	537	3	None	1357.0	19299.0	3.0	seen-within	2	2	190.74	2.98	False	True	190.72929906845093	193.69285893440247	[['b', 191.78996777534485]]	2.0	seen	False	True	1.0499677753448395	2.963559865951538	1.0	42.0	1618413039.044	False		False	0.0	508.5694999694824	90.0
2	ses-001	44	images_fmri/frog/frog_03s.jpg	unseen	3123	261	3	None	645.0	9284.0	3.0	unseen-within	1	2	195.21	2.98	False	False	195.19496297836304	198.16333484649653	[['y', 196.27060389518738]]	-2.0	unseen	False	True	1.06060389518737	2.968371868133545	1.0	43.0	1618413043.5097	False		False			
2	ses-001	45	images_fmri/game/game_03s.jpg	seen	3147	263	3	None	655.0	9409.0	3.0	seen-within	2	2	199.68	2.98	True	True	199.6631679534912	202.6448459625244	[['b', 200.76976084709167]]	2.0	seen	False	True	1.089760847091668	2.981678009033203	1.0	44.0	1618413047.9779	False		False	0.0	165.39590001106262	37.0
2	ses-001	46	images_fmri/doll/doll_03s.jpg	unseen	2463	206	3	None	500.0	7221.0	3.0	unseen-within	1	2	204.15	2.98	False	True	204.13103103637687	207.10938692092896	[['y', 205.64694094657898]]	-2.0	unseen	False	True	1.4969409465789738	2.978355884552002	1.0	45.0	1618413052.4457	False		False			
2	ses-001	47	images_fmri/windowsill/windowsill_03s.jpg	unseen	8487	708	3	None	1820.0	25622.0	3.0	unseen-within	1	2	208.62	2.98	False	False	208.59638285636905	211.5757820606232	[['y', 209.88591694831848]]	-2.0	unseen	False	True	1.265916948318477	2.9793992042541504	1.0	46.0	1618413056.9111	False		False			
2	ses-001	48	images_fmri/tie/tie_03s.jpg	seen	7707	643	3	None	1659.0	23416.0	3.0	seen-within	2	2	213.09	2.98	True	True	213.0779449939728	216.0476200580597	[['b', 214.2989649772644]]	2.0	seen	False	True	1.2089649772644009	2.969675064086914	1.0	47.0	1618413061.3927	False		False	0.0	320.8239998817444	48.0
2	ses-001	49	images_fmri/rat/rat_03s.jpg	unseen	6147	513	3	None	1286.0	18303.0	3.0	unseen-between	1	2	217.56	2.98	False	False	217.5446350574493	220.52579188346863	[['y', 219.0925178527832]]	-2.0	unseen	False	True	1.5325178527832009	2.981156826019287	1.0	48.0	1618413065.8593	False		False			
2	ses-001	50	images_fmri/turtle/turtle_03s.jpg	unseen	8055	672	3	None	1737.0	24476.0	3.0	unseen-between	1	2	222.03	2.98	True	True	222.0142428874969	224.9944999217987	[['a', 223.242830991745]]	-2.0	unseen	False	True	1.212830991744994	2.980257034301758	1.0	49.0	1618413070.3289	False		False			
2	ses-001	51	images_fmri/strainer/strainer_03s.jpg	unseen	7275	607	3	None	1567.0	22123.0	3.0	unseen-between	1	2	226.5	2.98	True	True	226.4791350364685	229.4629280567169	[['a', 227.78654384613037]]	-2.0	unseen	False	True	1.286543846130371	2.983793020248413	1.0	50.0	1618413074.7938	False		False			
2	ses-001	52	images_fmri/kale/kale_03s.jpg	seen	4059	339	3	None	861.0	12308.0	3.0	seen-within	2	2	230.97	2.98	False	False	230.94592595100403	233.92869400978088	[['x', 232.2341079711914]]	2.0	seen	False	True	1.2641079711914074	2.9827680587768555	1.0	51.0	1618413079.2606	False		False	0.0	165.38289999961853	37.0
2	ses-001	53	images_fmri/barrel/barrel_03s.jpg	unseen	411	35	3	None	77.0	1138.0	3.0	unseen-between	1	2	235.44	2.98	True	False	235.42745089530945	238.3969280719757	[['a', 236.5527060031891]]	-2.0	unseen	False	True	1.1127060031890892	2.96947717666626	1.0	52.0	1618413083.7422	False		False			
2	ses-001	54	images_fmri/doll/doll_03s.jpg	seen	2463	206	3	None	500.0	7221.0	3.0	seen-within	2	2	239.91	2.98	True	True	239.8958978652954	242.87641096115112	[['b', 241.62482690811157]]	2.0	seen	False	True	1.7148269081115757	2.980513095855713	1.0	53.0	1618413088.2106	False		False	0.0	35.76489996910095	8.0
2	ses-001	55	images_fmri/stove1/stove1_03s.jpg	unseen	7263	606	3	None	1564.0	22085.0	3.0	unseen-within	1	2	244.38	2.98	True	False	244.36215591430664	247.3437418937683	[['a', 245.57193779945374]]	-2.0	unseen	False	True	1.19193779945374	2.98158597946167	1.0	54.0	1618413092.6769	False		False			
2	ses-001	56	images_fmri/boot/boot_03s.jpg	seen	855	72	3	None	170.0	2582.0	3.0	seen-within	2	2	248.85	2.98	False	True	248.82758593559265	251.80816197395325	[['b', 250.32551193237305]]	2.0	seen	False	True	1.4755119323730526	2.980576038360596	1.0	55.0	1618413097.1423	False		False	0.0	151.97689986228943	34.0
2	ses-001	57	images_fmri/girl/girl_03s.jpg	seen	3255	272	3	None	677.0	9697.0	3.0	seen-within	2	2	253.32	2.98	True	True	253.29639291763303	256.2793679237366	[['b', 254.43934988975525]]	2.0	seen	False	True	1.1193498897552558	2.982975006103516	1.0	56.0	1618413101.6111	False		False	0.0	174.3336000442505	39.0
2	ses-001	58	images_fmri/sink/sink_03s.jpg	seen	6795	567	3	None	1448.0	20531.0	3.0	seen-within	2	2	257.79	2.98	False	True	257.7781929969788	260.7452609539032	[['b', 259.0295488834381]]	2.0	seen	False	True	1.23954888343809	2.9670679569244385	1.0	57.0	1618413106.0929	False		False	0.0	156.46230006217957	35.0
2	ses-001	59	images_fmri/railing/railing_03s.jpg	seen	6123	511	3	None	1278.0	18199.0	3.0	seen-within	2	2	262.26	2.98	False	False	262.2432498931885	265.2270529270172	[['x', 263.2093470096588]]	2.0	seen	False	True	0.9493470096588226	2.983803033828736	1.0	58.0	1618413110.558	False		False	0.0	134.0938000679016	30.0
2	ses-001	60	images_fmri/broccoli/broccoli_03s.jpg	seen	1011	85	3	None	202.0	3050.0	3.0	seen-within	2	2	266.73	2.98	False	True	266.7124390602112	269.6947889328003	[['b', 267.6557719707489]]	2.0	seen	False	True	0.9257719707488832	2.982349872589112	1.0	59.0	1618413115.0271	False		False	0.0	116.21420001983644	26.0
2	ses-001	1	images_fmri/strawberry/strawberry_03n.jpg	unseen	7287	608	3	None	1571.0	22184.0	3.0	unseen-within	1	3	3.0	2.98	False	False	2.985198974609375	5.972728967666626	[['y', 4.257075786590576]]	-2.0	unseen	False	True	1.2570757865905762	2.987529993057251	1.0	0.0	1618413224.2863	False		False			
2	ses-001	2	images_fmri/ukulele/ukulele_03s.jpg	unseen	8103	676	3	None	1743.0	24564.0	3.0	unseen-between	1	3	7.47	2.98	False	True	7.471926927566528	10.454158067703249	[['y', 8.64162302017212]]	-2.0	unseen	False	True	1.1716230201721194	2.9822311401367188	1.0	1.0	1618413228.7731	False		False			
2	ses-001	3	images_fmri/bed/bed_03s.jpg	unseen	519	44	3	None	109.0	1647.0	3.0	unseen-within	1	3	11.94	2.98	False	True	11.939146995544434	14.918477058410645	[['x', 13.913944005966187]]	-1.0	unseen	False	False	1.973944005966187	2.979330062866211	1.0	2.0	1618413233.2403	False		False			
2	ses-001	4	images_fmri/milkshake/milkshake_03s.jpg	unseen	4791	400	3	None	1003.0	14283.0	3.0	unseen-between	1	3	16.41	2.98	True	True	16.405012130737305	19.385093927383423	[['a', 17.789206981658936]]	-2.0	unseen	False	True	1.3792069816589354	2.980081796646118	1.0	3.0	1618413237.7062	False		False			
2	ses-001	5	images_fmri/breadstick/breadstick_03s.jpg	unseen	999	84	3	None	197.0	2982.0	3.0	unseen-within	1	3	20.88	2.98	True	True	20.87177801132202	23.85650491714477	[['a', 22.01762294769287]]	-2.0	unseen	False	True	1.137622947692872	2.984726905822754	1.0	4.0	1618413242.1729	False		False			
2	ses-001	6	images_fmri/glass/glass_03s.jpg	unseen	3267	273	3	None	678.0	9710.0	3.0	unseen-within	1	3	25.35	2.98	False	True	25.353457927703857	28.322731971740723	[['y', 26.52505588531494]]	-2.0	unseen	False	True	1.17505588531494	2.969274044036865	1.0	5.0	1618413246.6546	False		False			
2	ses-001	7	images_fmri/refrigerator/refrigerator_03s.jpg	unseen	6207	518	3	None	1301.0	18519.0	3.0	unseen-within	1	3	29.82	2.98	True	True	29.820008993148804	32.803285121917725	[['a', 30.99766182899475]]	-2.0	unseen	False	True	1.1776618289947507	2.983276128768921	1.0	6.0	1618413251.1212	False		False			
2	ses-001	8	images_fmri/taco/taco_03s.jpg	unseen	7503	626	3	None	1614.0	22790.0	3.0	unseen-between	1	3	34.29	2.98	True	False	34.28847408294678	37.267833948135376	[['a', 35.58764886856079]]	-2.0	unseen	False	True	1.297648868560792	2.979359865188598	1.0	7.0	1618413255.5896	False		False			
2	ses-001	9	images_fmri/toilet_paper/toilet_paper_03s.jpg	unseen	7779	649	3	None	1672.0	23596.0	3.0	unseen-between	1	3	38.76	2.98	True	False	38.75470590591431	41.73849606513977	[['a', 39.810611963272095]]	-2.0	unseen	False	True	1.0506119632720967	2.983790159225464	1.0	8.0	1618413260.0558	False		False			
2	ses-001	10	images_fmri/bracelet2/bracelet2_03s.jpg	unseen	951	80	3	None	189.0	2862.0	3.0	unseen-between	1	3	43.23	2.98	False	True	43.22156500816345	46.20508098602295	[['y', 44.434969902038574]]	-2.0	unseen	False	True	1.2049699020385771	2.983515977859497	1.0	9.0	1618413264.5227	False		False			
2	ses-001	11	images_fmri/joystick/joystick_03s.jpg	unseen	4035	337	3	None	853.0	12202.0	3.0	unseen-between	1	3	47.7	2.98	False	True	47.70308995246887	50.6718499660492	[['y', 48.89403700828552]]	-2.0	unseen	False	True	1.1940370082855196	2.9687600135803223	1.0	10.0	1618413269.0042	False		False			
2	ses-001	12	images_fmri/eggbeater/eggbeater_03s.jpg	unseen	2727	228	3	None	549.0	7964.0	3.0	unseen-within	1	3	52.17	2.98	False	False	52.16999506950378	55.15594410896301	[['y', 53.25101685523987]]	-2.0	unseen	False	True	1.0810168552398665	2.9859490394592285	1.0	11.0	1618413273.4711	False		False			
2	ses-001	13	images_fmri/bed/bed_03s.jpg	seen	519	44	3	None	109.0	1647.0	3.0	seen-within	2	3	56.64	2.98	True	True	56.6380341053009	59.61963510513306	[['b', 57.77668285369873]]	2.0	seen	False	True	1.13668285369873	2.9816009998321533	1.0	12.0	1618413277.9392	False		False	0.0	44.69889998435974	10.0
2	ses-001	14	images_fmri/barnacle/barnacle_03s.jpg	seen	399	34	3	None	76.0	1126.0	3.0	seen-within	2	3	61.11	2.98	True	False	61.1046130657196	64.08394002914429	[['x', 63.23078799247742]]	2.0	seen	False	True	2.1207879924774176	2.9793269634246826	1.0	13.0	1618413282.4058	False		False	0.0	328.2937002182007	50.0
2	ses-001	15	images_fmri/worm/worm_03s.jpg	unseen	8571	715	3	None	1837.0	25861.0	3.0	unseen-between	1	3	65.58	2.98	False	False	65.57083010673523	68.55419206619263	[['y', 66.85123896598816]]	-2.0	unseen	False	True	1.2712389659881609	2.983361959457397	1.0	14.0	1618413286.872	False		False			
2	ses-001	16	images_fmri/windowsill/windowsill_03s.jpg	seen	8487	708	3	None	1820.0	25622.0	3.0	seen-within	2	3	70.05	2.98	True	False	70.05232405662537	73.02163290977478	[['x', 71.13923501968384]]	2.0	seen	False	True	1.0892350196838407	2.969308853149414	1.0	15.0	1618413291.3535	False		False	0.0	234.4423999786377	29.0
2	ses-001	17	images_fmri/bumper/bumper_03s.jpg	unseen	1119	94	3	None	220.0	3295.0	3.0	unseen-between	1	3	74.52	2.98	False	False	74.51889705657959	77.50015306472778	[['y', 76.1217110157013]]	-2.0	unseen	False	True	1.601711015701298	2.9812560081481934	1.0	16.0	1618413295.82	False		False			
2	ses-001	18	images_fmri/missile/missile_03s.jpg	unseen	4815	402	3	None	1007.0	14346.0	3.0	unseen-within	1	3	78.99	2.98	True	False	78.98763012886047	81.96675896644592	[['a', 80.81911087036133]]	-2.0	unseen	False	True	1.8291108703613328	2.979128837585449	1.0	17.0	1618413300.2888	False		False			
2	ses-001	19	images_fmri/mirror/mirror_03s.jpg	unseen	4803	401	3	None	1006.0	14334.0	3.0	unseen-between	1	3	83.46	2.98	True	True	83.4547119140625	86.4371349811554	[['a', 84.53936100006104]]	-2.0	unseen	False	True	1.0793610000610414	2.9824230670928955	1.0	18.0	1618413304.7559	False		False			
2	ses-001	20	images_fmri/ball/ball_03s.jpg	unseen	315	27	3	None	60.0	882.0	3.0	unseen-between	1	3	87.92999999999998	2.98	True	False	87.9213080406189	90.9036099910736	[['a', 89.09125399589539]]	-2.0	unseen	False	True	1.1612539958954071	2.982301950454712	1.0	19.0	1618413309.2225	False		False			
2	ses-001	21	images_fmri/breadstick/breadstick_03s.jpg	seen	999	84	3	None	197.0	2982.0	3.0	seen-within	2	3	92.4	2.98	False	True	92.40180611610413	95.36898112297058	[['b', 94.1227548122406]]	2.0	seen	False	True	1.722754812240595	2.967175006866455	1.0	20.0	1618413313.7029	False		False	0.0	71.52999997138977	16.0
2	ses-001	22	images_fmri/carrot/carrot_03s.jpg	unseen	1443	121	3	None	278.0	4077.0	3.0	unseen-between	1	3	96.87	2.98	False	True	96.86876392364502	99.8521499633789	[['y', 98.00589895248413]]	-2.0	unseen	False	True	1.1358989524841263	2.9833860397338867	1.0	21.0	1618413318.1699	False		False			
2	ses-001	23	images_fmri/bus/bus_03n.jpg	unseen	1179	99	3	None	227.0	3382.0	3.0	unseen-between	1	3	101.34	2.98	False	True	101.33713412284852	104.3171329498291	[['y', 102.5241129398346]]	-2.0	unseen	False	True	1.184112939834591	2.979998826980591	1.0	22.0	1618413322.6383	False		False			
2	ses-001	24	images_fmri/stove1/stove1_03s.jpg	seen	7263	606	3	None	1564.0	22085.0	3.0	seen-within	2	3	105.81	2.98	True	True	105.80347514152528	108.78279113769533	[['a', 107.25247192382812]]	-2.0	unseen	True	True	1.4424719238281227	2.979315996170044	1.0	23.0	1618413327.1046	False		False	0.0	234.4277000427246	29.0
2	ses-001	25	images_fmri/refrigerator/refrigerator_03s.jpg	seen	6207	518	3	None	1301.0	18519.0	3.0	seen-within	2	3	110.28	2.98	False	False	110.26965403556824	113.2543559074402	[['x', 111.45023679733276]]	2.0	seen	False	True	1.1702367973327623	2.984701871871948	1.0	24.0	1618413331.5708	False		False	0.0	80.44959998130798	18.0
2	ses-001	26	images_fmri/satellite_dish/satellite_dish_03s.jpg	unseen	6447	538	3	None	1362.0	19362.0	3.0	unseen-between	1	3	114.75	2.98	True	True	114.7512710094452	117.71835112571716	[['a', 116.0729730129242]]	-2.0	unseen	False	True	1.3229730129241943	2.9670801162719727	1.0	25.0	1618413336.0524	False		False			
2	ses-001	27	images_fmri/go-kart/go-kart_03s.jpg	unseen	3279	274	3	None	683.0	9779.0	3.0	unseen-between	1	3	119.22	2.98	True	True	119.22031497955322	122.19904398918152	[['a', 120.66545987129211]]	-2.0	unseen	False	True	1.4454598712921154	2.978729009628296	1.0	26.0	1618413340.5215	False		False			
2	ses-001	28	images_fmri/urinal/urinal_03s.jpg	unseen	8151	680	3	None	1749.0	24647.0	3.0	unseen-between	1	3	123.69	2.98	True	False	123.68601107597352	126.66944098472597	[['a', 124.92194890975952]]	-2.0	unseen	False	True	1.2319489097595238	2.9834299087524414	1.0	27.0	1618413344.9872	False		False			
2	ses-001	29	images_fmri/ferret/ferret_03s.jpg	unseen	2883	241	3	None	579.0	8374.0	3.0	unseen-between	1	3	128.16	2.98	False	False	128.14877605438232	131.1322340965271	[['y', 129.66977381706238]]	-2.0	unseen	False	True	1.5097738170623811	2.9834580421447754	1.0	28.0	1618413349.4499	False		False			
2	ses-001	30	images_fmri/yo-yo/yo-yo_03s.jpg	unseen	8607	718	3	None	1848.0	26008.0	3.0	unseen-within	1	3	132.63	2.98	True	True	132.6199779510498	135.60123205184937	[['a', 134.51608085632324]]	-2.0	unseen	False	True	1.8860808563232467	2.9812541007995605	1.0	29.0	1618413353.9211	False		False			
2	ses-001	31	images_fmri/eggbeater/eggbeater_03s.jpg	seen	2727	228	3	None	549.0	7964.0	3.0	seen-within	2	3	137.1	2.98	False	False	137.10070991516113	140.0690779685974	[['x', 138.1650698184967]]	2.0	seen	False	True	1.0650698184967098	2.96836805343628	1.0	30.0	1618413358.4019	False		False	0.0	84.93079996109009	19.0
2	ses-001	32	images_fmri/beet/beet_03s.jpg	unseen	555	47	3	None	115.0	1753.0	3.0	unseen-between	1	3	141.57	2.98	True	True	141.5689959526062	144.55114006996155	[['a', 142.76686000823975]]	-2.0	unseen	False	True	1.196860008239753	2.9821441173553467	1.0	31.0	1618413362.8701	False		False			
2	ses-001	33	images_fmri/strawberry/strawberry_03n.jpg	seen	7287	608	3	None	1571.0	22184.0	3.0	seen-within	2	3	146.04	2.98	True	False	146.0356059074402	149.01527905464172	[['y', 147.70994591712952]]	1.0	seen	False	False	1.6699459171295246	2.979673147201538	1.0	32.0	1618413367.3367	False		False	0.0	143.05040001869202	32.0
2	ses-001	34	images_fmri/stair/stair_03s.jpg	unseen	7143	596	3	None	1533.0	21662.0	3.0	unseen-between	1	3	150.51	2.98	True	True	150.4983639717102	153.48567295074463	[['a', 151.52761387825012]]	-2.0	unseen	False	True	1.0176138782501312	2.987308979034424	1.0	33.0	1618413371.7995	False		False			
2	ses-001	35	images_fmri/dustpan/dustpan_03n.jpg	unseen	2655	222	3	None	536.0	7778.0	3.0	unseen-within	1	3	154.98	2.98	False	True	154.98355412483215	157.952064037323	[['y', 156.15866994857788]]	-2.0	unseen	False	True	1.178669948577891	2.9685099124908447	1.0	34.0	1618413376.2847	False		False			
2	ses-001	36	images_fmri/aloe/aloe_03n.jpg	unseen	63	6	3	None	15.0	207.0	3.0	unseen-between	1	3	159.45	2.98	True	False	159.45010709762573	162.43350911140442	[['a', 160.64869785308838]]	-2.0	unseen	False	True	1.1986978530883905	2.9834020137786865	1.0	35.0	1618413380.7512	False		False			
2	ses-001	37	images_fmri/horseshoe/horseshoe_03s.jpg	unseen	3831	320	3	None	800.0	11440.0	3.0	unseen-between	1	3	163.92	2.98	False	False	163.9184010028839	166.9001190662384	[['y', 165.14781188964844]]	-2.0	unseen	False	True	1.22781188964845	2.981718063354492	1.0	36.0	1618413385.2195	False		False			
2	ses-001	38	images_fmri/glass/glass_03s.jpg	seen	3267	273	3	None	678.0	9710.0	3.0	seen-within	2	3	168.39	2.98	False	True	168.38630414009094	171.36812710762024	[['b', 169.40208888053894]]	2.0	seen	False	True	1.012088880538954	2.981822967529297	1.0	37.0	1618413389.6874	False		False	0.0	143.03280019760132	32.0
2	ses-001	39	images_fmri/honeycomb/honeycomb_03s.jpg	seen	3795	317	3	None	790.0	11297.0	3.0	seen-within	2	3	172.86	2.98	True	False	172.85021710395813	175.83360505104065	[['x', 174.43262791633606]]	2.0	seen	False	True	1.572627916336046	2.9833879470825195	1.0	38.0	1618413394.1514	False		False	0.0	431.1042001247406	73.0
2	ses-001	40	images_fmri/camcorder/camcorder_03s.jpg	unseen	1263	106	3	None	245.0	3629.0	3.0	unseen-within	1	3	177.32999999999996	2.98	True	False	177.33302807807922	180.29875707626343	[['a', 179.1986529827118]]	-2.0	unseen	False	True	1.8686529827118363	2.965728998184204	1.0	39.0	1618413398.6342	False		False			
2	ses-001	41	images_fmri/knot/knot_03s.jpg	unseen	4167	348	3	None	884.0	12656.0	3.0	unseen-within	1	3	181.8	2.98	False	True	181.7995970249176	184.78083491325376	[['y', 183.66408491134644]]	-2.0	unseen	False	True	1.864084911346424	2.9812378883361816	1.0	40.0	1618413403.1007	False		False			
2	ses-001	42	images_fmri/fig/fig_03s.jpg	unseen	2907	243	3	None	582.0	8421.0	3.0	unseen-between	1	3	186.27	2.98	True	True	186.26915502548212	189.24962306022644	[['a', 187.5148220062256]]	-2.0	unseen	False	True	1.2448220062255757	2.9804680347442627	1.0	41.0	1618413407.5703	False		False			
2	ses-001	43	images_fmri/jellyfish/jellyfish_03s.jpg	seen	4011	335	3	None	846.0	12093.0	3.0	seen-within	2	3	190.74	2.98	False	True	190.7344410419464	193.71931409835813	[['y', 191.82538294792175]]	-2.0	unseen	True	True	1.0853829479217438	2.984873056411743	1.0	42.0	1618413412.0356	False		False	0.0	930.7266998291016	161.0
2	ses-001	44	images_fmri/rug/rug_03s.jpg	unseen	6387	533	3	None	1341.0	19070.0	3.0	unseen-between	1	3	195.21	2.98	True	False	195.20189905166623	198.1852860450745	[['a', 196.27327680587769]]	-2.0	unseen	False	True	1.0632768058776776	2.983386993408203	1.0	43.0	1618413416.503	False		False			
2	ses-001	45	images_fmri/yo-yo/yo-yo_03s.jpg	seen	8607	718	3	None	1848.0	26008.0	3.0	seen-within	2	3	199.68	2.98	False	False	199.6825671195984	202.6499650478363	[['x', 201.2144649028778]]	2.0	seen	False	True	1.5344649028778008	2.967397928237915	1.0	44.0	1618413420.9837	False		False	0.0	67.06260013580322	15.0
2	ses-001	46	images_fmri/missile/missile_03s.jpg	seen	4815	402	3	None	1007.0	14346.0	3.0	seen-within	2	3	204.15	2.98	False	False	204.1485199928284	207.1312720775604	[['x', 205.67493200302124]]	2.0	seen	False	True	1.5249320030212346	2.982752084732056	1.0	45.0	1618413425.4497	False		False	0.0	125.1609001159668	28.0
2	ses-001	47	images_fmri/parsley/parsley_03s.jpg	seen	5367	448	3	None	1123.0	15994.0	3.0	seen-within	2	3	208.62	2.98	False	False	208.6172161102295	211.5969390869141	[['x', 210.08945488929749]]	2.0	seen	False	True	1.4694548892974808	2.9797229766845703	1.0	46.0	1618413429.9184	False		False	0.0	426.6391999721527	72.0
2	ses-001	48	images_fmri/bracket/bracket_03s.jpg	unseen	963	81	3	None	190.0	2879.0	3.0	unseen-between	1	3	213.09	2.98	False	True	213.0838451385498	216.06340312957764	[['y', 214.43260884284973]]	-2.0	unseen	False	True	1.342608842849728	2.979557991027832	1.0	47.0	1618413434.385	False		False			
2	ses-001	49	images_fmri/bucket/bucket_03s.jpg	unseen	1071	90	3	None	210.0	3155.0	3.0	unseen-within	1	3	217.56	2.98	True	False	217.54692196846008	220.53373503685	[['a', 218.83410501480103]]	-2.0	unseen	False	True	1.2741050148010231	2.9868130683898926	1.0	48.0	1618413438.8481	False		False			
2	ses-001	50	images_fmri/rhubarb/rhubarb_03s.jpg	unseen	6255	522	3	None	1308.0	18620.0	3.0	unseen-between	1	3	222.03	2.98	False	False	222.03187894821167	224.9990200996399	[['y', 224.30530500411987]]	-2.0	unseen	False	True	2.275305004119872	2.9671411514282227	1.0	49.0	1618413443.333	False		False			
2	ses-001	51	images_fmri/bucket/bucket_03s.jpg	seen	1071	90	3	None	210.0	3155.0	3.0	seen-within	2	3	226.5	2.98	False	False	226.4983880519867	229.48312401771545	[['x', 227.73745584487915]]	2.0	seen	False	True	1.2374558448791504	2.98473596572876	1.0	50.0	1618413447.7995	False		False	0.0	8.9514000415802	2.0
2	ses-001	52	images_fmri/knot/knot_03s.jpg	seen	4167	348	3	None	884.0	12656.0	3.0	seen-within	2	3	230.97	2.98	False	False	230.96776413917544	233.95228099823	[['x', 232.0533528327942]]	2.0	seen	False	True	1.0833528327941906	2.984516859054565	1.0	51.0	1618413452.2689	False		False	0.0	49.16820001602173	11.0
2	ses-001	53	images_fmri/bagel/bagel_03s.jpg	unseen	303	26	3	None	56.0	814.0	3.0	unseen-between	1	3	235.44	2.98	True	True	235.43342804908752	238.41296195983887	[['a', 237.19543600082397]]	-2.0	unseen	False	True	1.7554360008239769	2.9795339107513428	1.0	52.0	1618413456.7346	False		False			
2	ses-001	54	images_fmri/meatball/meatball_03s.jpg	seen	4731	395	3	None	990.0	14098.0	3.0	seen-within	2	3	239.91	2.98	True	True	239.9002230167389	242.88470101356504	[['b', 240.97720885276794]]	2.0	seen	False	True	1.0672088527679475	2.984477996826172	1.0	53.0	1618413461.2014	False		False	0.0	939.67560005188	163.0
2	ses-001	55	images_fmri/necklace/necklace_03s.jpg	unseen	5031	420	3	None	1055.0	15016.0	3.0	unseen-between	1	3	244.38	2.98	False	False	244.3815491199493	247.35141611099243	[['y', 245.63364696502686]]	-2.0	unseen	False	True	1.25364696502686	2.969866991043091	1.0	54.0	1618413465.6827	False		False			
2	ses-001	56	images_fmri/dustpan/dustpan_03n.jpg	seen	2655	222	3	None	536.0	7778.0	3.0	seen-within	2	3	248.85	2.98	True	False	248.85001802444452	251.8316271305084	[['x', 250.0663719177246]]	2.0	seen	False	True	1.216371917724615	2.9816091060638428	1.0	55.0	1618413470.1512	False		False	0.0	93.86650013923644	21.0
2	ses-001	57	images_fmri/frog/frog_03s.jpg	seen	3123	261	3	None	645.0	9284.0	3.0	seen-within	2	3	253.32	2.98	True	True	253.3128409385681	256.29598808288574	[['b', 254.55463194847107]]	2.0	seen	False	True	1.2346319484710762	2.983147144317627	1.0	56.0	1618413474.614	False		False	0.0	431.1043000221253	73.0
2	ses-001	58	images_fmri/shredder/shredder_03s.jpg	unseen	6735	562	3	None	1438.0	20389.0	3.0	unseen-between	1	3	257.79	2.98	False	True	257.77913093566895	260.7625501155853	[['y', 259.0421938896179]]	-2.0	unseen	False	True	1.2521938896178997	2.983419179916382	1.0	57.0	1618413479.0803	False		False			
2	ses-001	59	images_fmri/camcorder/camcorder_03s.jpg	seen	1263	106	3	None	245.0	3629.0	3.0	seen-within	2	3	262.26	2.98	True	False	262.2458040714264	265.22772002220154	[['x', 264.08614683151245]]	2.0	seen	False	True	1.8261468315124605	2.9819159507751465	1.0	58.0	1618413483.5469	False		False	0.0	84.91269993782043	19.0
2	ses-001	60	images_fmri/lock/lock_03s.jpg	unseen	4491	375	3	None	941.0	13432.0	3.0	unseen-between	1	3	266.73	2.98	False	True	266.72776198387146	269.6956260204315	[['y', 268.16102600097656]]	-2.0	unseen	False	True	1.4310260009765443	2.9678640365600586	1.0	59.0	1618413488.0289	False		False			
2	ses-002	1	images_fmri/extinguisher/extinguisher_03s.jpg	unseen	2799	234	3	None	564.0	8161.0	3.0	unseen-within	1	1	3.0	2.98	True	True	2.986321926116944	5.966308832168579	[['a', 4.611655950546265]]	-2.0	unseen	False	True	1.6116559505462646	2.979986906051636	1.0	0.0	1619015819.0243	False		False			
2	ses-002	2	images_fmri/fondue/fondue_03s.jpg	seen	3051	255	3	None	627.0	9047.0	3.0	seen-within-between	3	1	7.47	2.98	False	True	7.454949855804443	10.43282699584961	[['b', 9.172565937042236]]	2.0	seen	False	True	1.7025659370422366	2.977877140045166	1.0	1.0	1619015823.4929	False		False	7.0	0.0	136.0
2	ses-002	3	images_fmri/clipboard/clipboard_03s.jpg	unseen	1803	151	3	None	356.0	5150.0	3.0	unseen-within	1	1	11.94	2.98	True	True	11.919972896575928	14.902076005935667	[['a', 13.480216026306152]]	-2.0	unseen	False	True	1.5402160263061528	2.982103109359741	1.0	2.0	1619015827.9579	False		False			
2	ses-002	4	images_fmri/typewriter/typewriter_03s.jpg	unseen	8091	675	3	None	1742.0	24549.0	3.0	unseen-within	1	1	16.41	2.98	True	False	16.38867688179016	19.369659900665283	[['a', 17.57656192779541]]	-2.0	unseen	False	True	1.16656192779541	2.980983018875122	1.0	3.0	1619015832.4266	False		False			
2	ses-002	5	images_fmri/railing/railing_03s.jpg	seen	6123	511	3	None	1278.0	18199.0	3.0	seen-within-between	3	1	20.88	2.98	False	False	20.86850881576538	23.83266496658325	[['x', 22.95304584503174]]	2.0	seen	False	True	2.07304584503174	2.964156150817871	1.0	4.0	1619015836.9065	False		False	7.0	0.0	66.0
2	ses-002	6	images_fmri/beetle/beetle_03s.jpg	seen	567	48	3	None	116.0	1768.0	3.0	seen-within-between	3	1	25.35	2.98	True	True	25.3370578289032	28.315685033798218	[['b', 26.71740198135376]]	2.0	seen	False	True	1.3674019813537583	2.9786272048950195	1.0	5.0	1619015841.375	False		False	7.0	0.0	113.0
2	ses-002	7	images_fmri/iron/iron_03s.jpg	unseen	3951	330	3	None	833.0	11906.0	3.0	unseen-within	1	1	29.82	2.98	False	False	29.80094695091248	32.782588958740234	[['b', 31.647387981414795]]	-1.0	unseen	False	False	1.8273879814147944	2.981642007827759	1.0	6.0	1619015845.8389	False		False			
2	ses-002	8	images_fmri/sweatsuit/sweatsuit_03s.jpg	seen	7407	618	3	None	1594.0	22521.0	3.0	seen-within-between	3	1	34.29	2.98	False	True	34.2663209438324	37.247875928878784	[['b', 36.02232503890991]]	2.0	seen	False	True	1.732325038909913	2.9815549850463867	1.0	7.0	1619015850.3043	False		False	7.0	0.0	154.0
2	ses-002	9	images_fmri/poster/poster_03s.jpg	seen	5871	490	3	None	1230.0	17492.0	3.0	seen-between	2	1	38.76	2.98	False	False	38.73212194442749	41.71567893028259	[['x', 41.04398989677429]]	2.0	seen	False	True	2.283989896774294	2.9835569858551025	1.0	8.0	1619015854.7701	False		False	7.0	0.0	93.0
2	ses-002	10	images_fmri/snake/snake_03s.jpg	unseen	6891	575	3	None	1478.0	20938.0	3.0	unseen-between	1	1	43.23	2.98	True	True	43.21975588798523	46.18291687965393	[['a', 45.19685888290405]]	-2.0	unseen	False	True	1.966858882904056	2.963160991668701	1.0	9.0	1619015859.2577	False		False			
2	ses-002	11	images_fmri/cheetah/cheetah_03s.jpg	unseen	1611	135	3	None	316.0	4593.0	3.0	unseen-between	1	1	47.7	2.98	False	False	47.6855628490448	50.66544699668884	[['a', 50.5116548538208]]	1.0	seen	True	False	2.811654853820798	2.979884147644043	1.0	10.0	1619015863.7235	False		False			
2	ses-002	12	images_fmri/pan/pan_03s.jpg	seen	5271	440	3	None	1104.0	15707.0	3.0	seen-within-between	3	1	52.17	2.98	False	True	52.14845895767212	55.13174486160278	[['x', 54.72585391998291]]	-1.0	unseen	True	False	2.5558539199829085	2.983285903930664	1.0	11.0	1619015868.1864	False		False	7.0	0.0	152.0
2	ses-002	13	images_fmri/key/key_03s.jpg	unseen	4119	344	3	None	870.0	12443.0	3.0	unseen-within	1	1	56.64	2.98	True	False	56.61732602119446	59.603845834732056	[['a', 57.90018105506897]]	-2.0	unseen	False	True	1.2601810550689692	2.9865198135375977	1.0	12.0	1619015872.6553	False		False			
2	ses-002	14	images_fmri/satellite_dish/satellite_dish_03s.jpg	seen	6447	538	3	None	1362.0	19362.0	3.0	seen-between	2	1	61.11	2.98	False	False	61.08655285835266	64.06741499900818	[['x', 62.58987283706665]]	2.0	seen	False	True	1.479872837066651	2.9808621406555176	1.0	13.0	1619015877.1245	False		False	7.0	0.0	48.0
2	ses-002	15	images_fmri/meatball/meatball_03s.jpg	seen	4731	395	3	None	990.0	14098.0	3.0	seen-within-between	3	1	65.58	2.98	True	False	65.56669592857361	68.53575301170349	[['x', 67.19921803474426]]	2.0	seen	False	True	1.6192180347442644	2.969057083129883	1.0	14.0	1619015881.6046	False		False	7.0	0.0	21.0
2	ses-002	16	images_fmri/pogo_stick/pogo_stick_03s.jpg	seen	5775	482	3	None	1209.0	17179.0	3.0	seen-between	2	1	70.05	2.98	False	False	70.0346930027008	73.01459288597107	[['x', 71.53216099739075]]	2.0	seen	False	True	1.48216099739075	2.979899883270264	1.0	15.0	1619015886.0726	False		False	7.0	0.0	129.0
2	ses-002	17	images_fmri/ball/ball_03s.jpg	seen	315	27	3	None	60.0	882.0	3.0	seen-between	2	1	74.52	2.98	False	False	74.50229597091675	77.48364901542664	[['a', 76.14572596549988]]	1.0	seen	False	False	1.625725965499882	2.981353044509888	1.0	16.0	1619015890.5402	False		False	7.0	0.0	57.0
2	ses-002	18	images_fmri/cockroach/cockroach_03s.jpg	unseen	1863	156	3	None	374.0	5391.0	3.0	unseen-within	1	1	78.99	2.98	False	True	78.967453956604	81.95018887519836	[['y', 80.42328906059265]]	-2.0	unseen	False	True	1.4332890605926565	2.9827349185943604	1.0	17.0	1619015895.0054	False		False			
2	ses-002	19	images_fmri/doll/doll_03s.jpg	seen	2463	206	3	None	500.0	7221.0	3.0	seen-within-between	3	1	83.46	2.98	True	True	83.43580484390259	86.41491985321045	[['b', 84.98295998573303]]	2.0	seen	False	True	1.5229599857330385	2.9791150093078613	1.0	18.0	1619015899.4738	False		False	7.0	0.0	85.0
2	ses-002	20	images_fmri/airplane/airplane_03n.jpg	seen	39	4	3	None	11.0	152.0	3.0	seen-within-between	3	1	87.92999999999998	2.98	True	True	87.91804194450378	90.88367581367493	[['y', 89.82133889198303]]	1.0	seen	False	False	1.8913388919830536	2.9656338691711426	1.0	19.0	1619015903.956	False		False	7.0	0.0	98.0
2	ses-002	21	images_fmri/rhubarb/rhubarb_03s.jpg	seen	6255	522	3	None	1308.0	18620.0	3.0	seen-between	2	1	92.4	2.98	False	False	92.38409686088562	95.36409401893616	[['a', 94.85289096832275]]	1.0	seen	False	False	2.452890968322748	2.979997158050537	1.0	20.0	1619015908.422	False		False	7.0	0.0	31.0
2	ses-002	22	images_fmri/urinal/urinal_03s.jpg	seen	8151	680	3	None	1749.0	24647.0	3.0	seen-between	2	1	96.87	2.98	False	True	96.85136580467224	99.83407402038574	[['y', 99.9579930305481]]	-2.0	unseen	True	True	3.087993030548091	2.982708215713501	1.0	21.0	1619015912.8893	False		False	7.0	0.0	54.0
2	ses-002	23	images_fmri/refrigerator/refrigerator_03s.jpg	seen	6207	518	3	None	1301.0	18519.0	3.0	seen-within-between	3	1	101.34	2.98	True	False	101.3136909008026	104.3014748096466	[['x', 102.61217784881592]]	2.0	seen	False	True	1.2721778488159146	2.987783908843994	1.0	22.0	1619015917.3516	False		False	7.0	0.0	58.0
2	ses-002	24	images_fmri/pothole/pothole_03n.jpg	seen	5907	493	3	None	1234.0	17548.0	3.0	seen-within-between	3	1	105.81	2.98	False	True	105.78444790840148	108.76817488670348	[['b', 107.04394483566284]]	2.0	seen	False	True	1.2339448356628395	2.983726978302002	1.0	23.0	1619015921.8224	False		False	7.0	0.0	178.0
2	ses-002	25	images_fmri/uniform/uniform_03s.jpg	seen	8139	679	3	None	1748.0	24631.0	3.0	seen-between	2	1	110.28	2.98	False	False	110.2674789428711	113.23078799247742	[['x', 111.57137989997864]]	2.0	seen	False	True	1.2913798999786366	2.9633090496063232	1.0	24.0	1619015926.3054	False		False	7.0	0.0	125.0
2	ses-002	26	images_fmri/starfish/starfish_03s.jpg	unseen	7191	600	3	None	1542.0	21781.0	3.0	unseen-within	1	1	114.75	2.98	False	True	114.73455595970154	117.71694087982178	[['y', 116.04049587249756]]	-2.0	unseen	False	True	1.2904958724975586	2.98238492012024	1.0	25.0	1619015930.7725	False		False			
2	ses-002	27	images_fmri/banana_split/banana_split_03s.jpg	seen	363	31	3	None	66.0	980.0	3.0	seen-between	2	1	119.22	2.98	True	True	119.19943690299988	122.18564796447754	[['b', 120.4044828414917]]	2.0	seen	False	True	1.1844828414917004	2.986211061477661	1.0	26.0	1619015935.2374	False		False	7.0	0.0	157.0
2	ses-002	28	images_fmri/rhinoceros/rhinoceros_03s.jpg	unseen	6243	521	3	None	1307.0	18608.0	3.0	unseen-within	1	1	123.69	2.98	True	True	123.66568183898926	126.64645385742188	[['a', 125.23479986190796]]	-2.0	unseen	False	True	1.5447998619079613	2.980772018432617	1.0	27.0	1619015939.7036	False		False			
2	ses-002	29	images_fmri/mask/mask_03s.jpg	seen	4671	390	3	None	981.0	13979.0	3.0	seen-within-between	3	1	128.16	2.98	False	False	128.1483018398285	131.11286401748657	[['x', 129.47156500816345]]	2.0	seen	False	True	1.3115650081634556	2.964562177658081	1.0	28.0	1619015944.1863	False		False	7.0	0.0	130.0
2	ses-002	30	images_fmri/clipboard/clipboard_03s.jpg	seen	1803	151	3	None	356.0	5150.0	3.0	seen-within	2	1	132.63	2.98	False	True	132.61687088012695	135.60068082809448	[['b', 133.89317083358765]]	2.0	seen	False	True	1.263170833587651	2.9838099479675293	1.0	29.0	1619015948.6548	False		False	0.0	120.69689989089966	27.0
2	ses-002	31	images_fmri/kazoo/kazoo_03s.jpg	unseen	4083	341	3	None	865.0	12363.0	3.0	unseen-between	1	1	137.1	2.98	True	False	137.0836479663849	140.062912940979	[['x', 139.39712190628052]]	2.0	seen	True	True	2.297121906280524	2.979264974594116	1.0	30.0	1619015953.1216	False		False			
2	ses-002	32	images_fmri/telescope/telescope_03n.jpg	seen	7599	634	3	None	1641.0	23165.0	3.0	seen-within-between	3	1	141.57	2.98	False	False	141.55031490325928	144.53206086158752	[['x', 143.5702929496765]]	2.0	seen	False	True	2.0002929496765205	2.981745958328247	1.0	31.0	1619015957.5883	False		False	7.0	0.0	180.0
2	ses-002	33	images_fmri/walker1/walker1_03s.jpg	unseen	8247	688	3	None	1774.0	25009.0	3.0	unseen-within	1	1	146.04	2.98	True	False	146.01796293258667	148.99605584144592	[['a', 148.62707090377808]]	-2.0	unseen	False	True	2.587070903778084	2.978092908859253	1.0	32.0	1619015962.0559	False		False			
2	ses-002	34	images_fmri/kimono/kimono_03s.jpg	unseen	4131	345	3	None	874.0	12509.0	3.0	unseen-within	1	1	150.51	2.98	True	True	150.4987018108368	153.46694993972778	[['a', 151.70044994354248]]	-2.0	unseen	False	True	1.1904499435424896	2.968248128890991	1.0	33.0	1619015966.5367	False		False			
2	ses-002	35	images_fmri/rhubarb/rhubarb_03s.jpg	seen	6255	522	3	None	1308.0	18620.0	3.0	seen-between-within	3	1	154.98	2.98	True	False	154.9646270275116	157.94878101348877	[['x', 155.98568987846375]]	2.0	seen	False	True	1.0056898784637551	2.984153985977173	1.0	34.0	1619015971.0026	False		False	0.0	62.58060002326965	14.0
2	ses-002	36	images_fmri/lobster/lobster_03s.jpg	seen	4479	374	3	None	940.0	13420.0	3.0	seen-between	2	1	159.45	2.98	False	True	159.43351101875305	162.4160258769989	[['b', 160.64656496047974]]	2.0	seen	False	True	1.1965649604797477	2.9825148582458496	1.0	35.0	1619015975.4715	False		False	7.0	0.0	160.0
2	ses-002	37	images_fmri/yo-yo/yo-yo_03s.jpg	seen	8607	718	3	None	1848.0	26008.0	3.0	seen-within-between	3	1	163.92	2.98	True	False	163.90051293373108	166.8814299106598	[['x', 165.46460390090942]]	2.0	seen	False	True	1.5446039009094363	2.980916976928711	1.0	36.0	1619015979.9385	False		False	7.0	0.0	52.0
2	ses-002	38	images_fmri/rhinoceros/rhinoceros_03s.jpg	seen	6243	521	3	None	1307.0	18608.0	3.0	seen-within	2	1	168.39	2.98	False	False	168.36468601226807	171.35048484802246	[['x', 169.37014389038086]]	2.0	seen	False	True	0.980143890380873	2.9857988357543945	1.0	37.0	1619015984.4026	False		False	0.0	44.69900012016296	10.0
2	ses-002	39	images_fmri/hairbrush/hairbrush_03s.jpg	unseen	3555	297	3	None	735.0	10538.0	3.0	unseen-between	1	1	172.86	2.98	True	False	172.84804582595825	175.8125078678131	[['a', 174.55932903289795]]	-2.0	unseen	False	True	1.6993290328979356	2.9644620418548584	1.0	38.0	1619015988.886	False		False			
2	ses-002	40	images_fmri/poster/poster_03s.jpg	seen	5871	490	3	None	1230.0	17492.0	3.0	seen-between-within	3	1	177.32999999999996	2.98	False	True	177.31460094451904	180.2977828979492	[['b', 178.60969305038452]]	2.0	seen	False	True	1.2796930503845658	2.983181953430176	1.0	39.0	1619015993.3526	False		False	0.0	138.5824999809265	31.0
2	ses-002	41	images_fmri/pogo_stick/pogo_stick_03s.jpg	seen	5775	482	3	None	1209.0	17179.0	3.0	seen-between-within	3	1	181.8	2.98	True	True	181.7784938812256	184.76312685012817	[['b', 182.85975790023804]]	2.0	seen	False	True	1.0597579002380255	2.984632968902588	1.0	40.0	1619015997.8164	False		False	0.0	111.74380016326904	25.0
2	ses-002	42	images_fmri/chandelier/chandelier_03s.jpg	unseen	1587	133	3	None	306.0	4456.0	3.0	unseen-within	1	1	186.27	2.98	False	False	186.2464089393616	189.22973895072937	[['y', 187.49287796020508]]	-2.0	unseen	False	True	1.222877960205068	2.983330011367798	1.0	41.0	1619016002.2844	False		False			
2	ses-002	43	images_fmri/duster/duster_03s.jpg	unseen	2643	221	3	None	535.0	7766.0	3.0	unseen-within	1	1	190.74	2.98	True	False	190.7120859622956	193.69511485099792	[['a', 192.0486249923706]]	-2.0	unseen	False	True	1.3086249923705964	2.9830288887023926	1.0	42.0	1619016006.75	False		False			
2	ses-002	44	images_fmri/starfish/starfish_03s.jpg	seen	7191	600	3	None	1542.0	21781.0	3.0	seen-within	2	1	195.21	2.98	False	True	195.1959228515625	198.16326785087583	[['b', 196.16407585144043]]	2.0	seen	False	True	0.9540758514404216	2.9673449993133545	1.0	43.0	1619016011.2339	False		False	0.0	80.46140003204346	18.0
2	ses-002	45	images_fmri/extinguisher/extinguisher_03s.jpg	seen	2799	234	3	None	564.0	8161.0	3.0	seen-within	2	1	199.68	2.98	False	True	199.66208791732788	202.64774894714355	[['b', 200.53821992874146]]	2.0	seen	False	True	0.8582199287414483	2.985661029815674	1.0	44.0	1619016015.7	False		False	0.0	196.67569994926453	44.0
2	ses-002	46	images_fmri/satellite_dish/satellite_dish_03s.jpg	seen	6447	538	3	None	1362.0	19362.0	3.0	seen-between-within	3	1	204.15	2.98	True	True	204.1315259933472	207.11557698249817	[['b', 204.93557691574097]]	2.0	seen	False	True	0.7855769157409611	2.984050989151001	1.0	45.0	1619016020.1695	False		False	0.0	143.04500007629397	32.0
2	ses-002	47	images_fmri/necklace/necklace_03s.jpg	seen	5031	420	3	None	1055.0	15016.0	3.0	seen-between	2	1	208.62	2.98	True	False	208.59847402572632	211.57838702201843	[['a', 210.58008694648743]]	-2.0	unseen	True	True	1.9600869464874224	2.9799129962921143	1.0	46.0	1619016024.6364	False		False	7.0	0.0	52.0
2	ses-002	48	images_fmri/flashlight/flashlight_03s.jpg	unseen	3003	251	3	None	612.0	8841.0	3.0	unseen-within	1	1	213.09	2.98	True	False	213.0655558109284	216.044095993042	[['a', 214.6267910003662]]	-2.0	unseen	False	True	1.5367910003662075	2.9785401821136475	1.0	47.0	1619016029.1035	False		False			
2	ses-002	49	images_fmri/beet/beet_03s.jpg	seen	555	47	3	None	115.0	1753.0	3.0	seen-between	2	1	217.56	2.98	False	False	217.5492849349976	220.5134289264679	[['x', 219.14349603652954]]	2.0	seen	False	True	1.5834960365295387	2.964143991470337	1.0	48.0	1619016033.5872	False		False	7.0	0.0	77.0
2	ses-002	50	images_fmri/ukulele/ukulele_03s.jpg	seen	8103	676	3	None	1743.0	24564.0	3.0	seen-between	2	1	222.03	2.98	True	True	222.0157489776612	224.9940128326416	[['b', 223.40319085121155]]	2.0	seen	False	True	1.3731908512115467	2.9782638549804688	1.0	49.0	1619016038.0537	False		False	7.0	0.0	108.0
2	ses-002	51	images_fmri/chandelier/chandelier_03s.jpg	seen	1587	133	3	None	306.0	4456.0	3.0	seen-within	2	1	226.5	2.98	False	False	226.4816148281097	229.4657919406891	[['x', 227.52868604660034]]	2.0	seen	False	True	1.0286860466003418	2.9841771125793457	1.0	50.0	1619016042.5196	False		False	0.0	40.23519992828369	9.0
2	ses-002	52	images_fmri/parsley/parsley_03s.jpg	seen	5367	448	3	None	1123.0	15994.0	3.0	seen-within-between	3	1	230.97	2.98	True	True	230.9482629299164	233.9269218444824	[['b', 233.55595803260803]]	2.0	seen	False	True	2.5859580326080334	2.97865891456604	1.0	51.0	1619016046.9862	False		False	7.0	0.0	65.0
2	ses-002	53	images_fmri/lobster/lobster_03s.jpg	seen	4479	374	3	None	940.0	13420.0	3.0	seen-between-within	3	1	235.44	2.98	True	True	235.4152109622956	238.3973178863525	[['b', 236.2895278930664]]	2.0	seen	False	True	0.8495278930664085	2.982106924057007	1.0	52.0	1619016051.4532	False		False	0.0	75.98170018196106	17.0
2	ses-002	54	images_fmri/lingerie/lingerie_03s.jpg	seen	4419	369	3	None	933.0	13322.0	3.0	seen-between	2	1	239.91	2.98	True	False	239.8966348171234	242.86355686187744	[['x', 241.60219192504883]]	2.0	seen	False	True	1.6921919250488315	2.9669220447540283	1.0	53.0	1619016055.9346	False		False	7.0	0.0	211.0
2	ses-002	55	images_fmri/duster/duster_03s.jpg	seen	2643	221	3	None	535.0	7766.0	3.0	seen-within	2	1	244.38	2.98	True	False	244.36151480674744	247.34728980064392	[['x', 245.2219729423523]]	2.0	seen	False	True	0.8419729423522995	2.9857749938964844	1.0	54.0	1619016060.3995	False		False	0.0	53.64949989318848	12.0
2	ses-002	56	images_fmri/lion/lion_03s.jpg	unseen	4431	370	3	None	934.0	13334.0	3.0	unseen-within	1	1	248.85	2.98	False	True	248.83159279823303	251.8099420070648	[['y', 251.69807505607605]]	-2.0	unseen	False	True	2.8480750560760555	2.978349208831787	1.0	55.0	1619016064.8695	False		False			
2	ses-002	57	images_fmri/cinnamon/cinnamon_03s.jpg	unseen	1767	148	3	None	349.0	5049.0	3.0	unseen-between	1	1	253.32	2.98	False	False	253.29312992095947	256.277370929718	[['a', 255.4390230178833]]	1.0	seen	True	False	2.119023017883308	2.984241008758545	1.0	56.0	1619016069.3311	False		False			
2	ses-002	58	images_fmri/walrus/walrus_03s.jpg	unseen	8307	693	3	None	1780.0	25092.0	3.0	unseen-between	1	1	257.79	2.98	True	True	257.7794289588928	260.7456419467926	[['y', 260.37266182899475]]	1.0	seen	True	False	2.5826618289947305	2.9662129878997803	1.0	57.0	1619016073.8174	False		False			
2	ses-002	59	images_fmri/bracelet2/bracelet2_03s.jpg	seen	951	80	3	None	189.0	2862.0	3.0	seen-between	2	1	262.26	2.98	False	True	262.24592781066895	265.21293592453003	[['b', 264.31016182899475]]	2.0	seen	False	True	2.05016182899476	2.967008113861084	1.0	58.0	1619016078.2839	False		False	7.0	0.0	109.0
2	ses-002	60	images_fmri/banana_split/banana_split_03s.jpg	seen	363	31	3	None	66.0	980.0	3.0	seen-between-within	3	1	266.73	2.98	True	True	266.7139618396759	269.6961579322815	[['b', 267.5221519470215]]	2.0	seen	False	True	0.7921519470214662	2.982196092605591	1.0	59.0	1619016082.7519	False		False	0.0	147.51449990272522	33.0
2	ses-002	1	images_fmri/pear/pear_03s.jpg	unseen	5427	453	3	None	1134.0	16143.0	3.0	unseen-within	1	2	3.0	2.98	False	True	2.9844110012054443	5.9668519496917725	[['y', 5.0666539669036865]]	-2.0	unseen	False	True	2.0666539669036865	2.982440948486328	1.0	0.0	1619016188.9108	False		False			
2	ses-002	2	images_fmri/padlock/padlock_03s.jpg	unseen	5235	437	3	None	1096.0	15603.0	3.0	unseen-within	1	2	7.47	2.98	False	False	7.46768307685852	10.433588981628418	[['y', 10.252279043197632]]	-2.0	unseen	False	True	2.782279043197632	2.965905904769897	1.0	1.0	1619016193.394	False		False			
2	ses-002	3	images_fmri/turtle/turtle_03s.jpg	seen	8055	672	3	None	1737.0	24476.0	3.0	seen-between	2	2	11.94	2.98	False	True	11.933228969573976	14.91741394996643	[['b', 13.049751996994019]]	2.0	seen	False	True	1.109751996994019	2.984184980392456	1.0	2.0	1619016197.8596	False		False	7.0	0.0	133.0
2	ses-002	4	images_fmri/wrench/wrench_03s.jpg	unseen	8595	717	3	None	1842.0	25930.0	3.0	unseen-between	1	2	16.41	2.98	False	False	16.40175700187683	19.38545107841492	[['y', 18.211469888687134]]	-2.0	unseen	False	True	1.8014698886871336	2.983694076538086	1.0	3.0	1619016202.3281	False		False			
2	ses-002	5	images_fmri/kangaroo/kangaroo_03n.jpg	seen	4071	340	3	None	863.0	12335.0	3.0	seen-between	2	2	20.88	2.98	True	True	20.873005151748657	23.85194706916809	[['b', 22.269970893859863]]	2.0	seen	False	True	1.3899708938598645	2.9789419174194336	1.0	4.0	1619016206.7994	False		False	7.0	0.0	146.0
2	ses-002	6	images_fmri/kimono/kimono_03s.jpg	seen	4131	345	3	None	874.0	12509.0	3.0	seen-within	2	2	25.35	2.98	False	True	25.33893704414368	28.32292103767395	[['b', 26.320605993270874]]	2.0	seen	False	True	0.9706059932708726	2.983983993530273	1.0	5.0	1619016211.2653	False		False	0.0	244.728600025177	32.0
2	ses-002	7	images_fmri/giraffe/giraffe_03s.jpg	unseen	3243	271	3	None	676.0	9673.0	3.0	unseen-within	1	2	29.82	2.98	False	True	29.820788145065308	32.78786897659302	[['x', 31.46778392791748]]	-1.0	unseen	False	False	1.6477839279174802	2.96708083152771	1.0	6.0	1619016215.7471	False		False			
2	ses-002	8	images_fmri/woman/woman_03s.jpg	unseen	8547	713	3	None	1833.0	25809.0	3.0	unseen-between	1	2	34.29	2.98	False	False	34.28951811790466	37.267781019210815	[['y', 36.87005305290222]]	-2.0	unseen	False	True	2.5800530529022225	2.9782629013061523	1.0	7.0	1619016220.2159	False		False			
2	ses-002	9	images_fmri/key/key_03s.jpg	seen	4119	344	3	None	870.0	12443.0	3.0	seen-within	2	2	38.76	2.98	False	False	38.7560350894928	41.736438035964966	[['x', 40.26235103607178]]	2.0	seen	False	True	1.5023510360717791	2.980402946472168	1.0	8.0	1619016224.6824	False		False	0.0	352.02710008621216	56.0
2	ses-002	10	images_fmri/go-kart/go-kart_03s.jpg	seen	3279	274	3	None	683.0	9779.0	3.0	seen-between	2	2	43.23	2.98	False	False	43.22274708747864	46.20528197288513	[['x', 44.422417879104614]]	2.0	seen	False	True	1.1924178791046174	2.982534885406494	1.0	9.0	1619016229.1491	False		False	7.0	0.0	103.0
2	ses-002	11	images_fmri/camcorder/camcorder_03s.jpg	seen	1263	106	3	None	245.0	3629.0	3.0	seen-within-between	3	2	47.7	2.98	True	True	47.68814015388489	50.67186117172241	[['b', 48.771246910095215]]	2.0	seen	False	True	1.071246910095212	2.9837210178375244	1.0	10.0	1619016233.6145	False		False	7.0	0.0	72.0
2	ses-002	12	images_fmri/lasagna/lasagna_03s.jpg	unseen	4251	355	3	None	899.0	12867.0	3.0	unseen-within	1	2	52.17	2.98	False	False	52.1708869934082	55.13976502418518	[['a', 54.75282692909241]]	1.0	seen	True	False	2.582826929092405	2.968878030776977	1.0	11.0	1619016238.0972	False		False			
2	ses-002	13	images_fmri/typewriter/typewriter_03s.jpg	seen	8091	675	3	None	1742.0	24549.0	3.0	seen-within	2	2	56.64	2.98	True	False	56.63858604431152	59.61732316017151	[['x', 58.04826498031616]]	2.0	seen	False	True	1.4082649803161615	2.9787371158599854	1.0	12.0	1619016242.5649	False		False	0.0	410.1382999420166	69.0
2	ses-002	14	images_fmri/joystick/joystick_03s.jpg	seen	4035	337	3	None	853.0	12202.0	3.0	seen-between	2	2	61.11	2.98	True	False	61.10145807266235	64.08699107170105	[['x', 62.44002890586853]]	2.0	seen	False	True	1.3300289058685308	2.9855329990386963	1.0	13.0	1619016247.0278	False		False	7.0	0.0	123.0
2	ses-002	15	images_fmri/beaver/beaver_03s.jpg	seen	507	43	3	None	108.0	1630.0	3.0	seen-between	2	2	65.58	2.98	False	False	65.57142901420593	68.55148196220398	[['x', 67.09666395187378]]	2.0	seen	False	True	1.516663951873781	2.980052947998047	1.0	14.0	1619016251.4978	False		False	7.0	0.0	185.0
2	ses-002	16	images_fmri/desk/desk_03s.jpg	unseen	2379	199	3	None	481.0	6953.0	3.0	unseen-between	1	2	70.05	2.98	False	True	70.038654088974	73.0185661315918	[['y', 71.69065284729004]]	-2.0	unseen	False	True	1.640652847290042	2.979912042617798	1.0	15.0	1619016255.965	False		False			
2	ses-002	17	images_fmri/kangaroo/kangaroo_03n.jpg	seen	4071	340	3	None	863.0	12335.0	3.0	seen-between-within	3	2	74.52	2.98	False	False	74.51972198486328	77.48818302154541	[['x', 75.4821310043335]]	2.0	seen	False	True	0.9621310043335	2.968461036682129	1.0	16.0	1619016260.4461	False		False	0.0	53.64669990539551	12.0
2	ses-002	18	images_fmri/chalk/chalk_03s.jpg	unseen	1563	131	3	None	303.0	4413.0	3.0	unseen-within	1	2	78.99	2.98	False	False	78.98600697517395	81.96690106391907	[['x', 80.24933385848999]]	2.0	seen	True	True	1.2593338584899954	2.980894088745117	1.0	17.0	1619016264.9124	False		False			
2	ses-002	19	images_fmri/ukulele/ukulele_03s.jpg	seen	8103	676	3	None	1743.0	24564.0	3.0	seen-between-within	3	2	83.46	2.98	True	False	83.45392203330994	86.43361115455627	[['x', 84.92001795768738]]	2.0	seen	False	True	1.4600179576873842	2.979689121246338	1.0	18.0	1619016269.3803	False		False	0.0	231.32660007476807	29.0
2	ses-002	20	images_fmri/chair/chair_03s.jpg	seen	1539	129	3	None	301.0	4385.0	3.0	seen-within-between	3	2	87.92999999999998	2.98	True	True	87.92143106460571	90.90304708480836	[['b', 89.91353106498718]]	2.0	seen	False	True	1.983531064987204	2.9816160202026367	1.0	19.0	1619016273.8478	False		False	7.0	0.0	230.0
2	ses-002	21	images_fmri/toilet_paper/toilet_paper_03s.jpg	seen	7779	649	3	None	1672.0	23596.0	3.0	seen-between	2	2	92.4	2.98	False	True	92.4026231765747	95.36907196044922	[['y', 94.46947598457336]]	-2.0	unseen	True	True	2.0694759845733586	2.966448783874512	1.0	20.0	1619016278.329	False		False	7.0	0.0	132.0
2	ses-002	22	images_fmri/rocking_chair/rocking_chair_03s.jpg	unseen	6339	529	3	None	1322.0	18810.0	3.0	unseen-within	1	2	96.87	2.98	True	False	96.87052607536316	99.8363871574402	[['a', 98.2620759010315]]	-2.0	unseen	False	True	1.3920759010314896	2.9658610820770264	1.0	21.0	1619016282.7969	False		False			
2	ses-002	23	images_fmri/bobsled/bobsled_03s.jpg	unseen	819	69	3	None	156.0	2382.0	3.0	unseen-within	1	2	101.34	2.98	True	True	101.3380961418152	104.3163559436798	[['a', 102.90472793579102]]	-2.0	unseen	False	True	1.5647279357910122	2.978259801864624	1.0	22.0	1619016287.2645	False		False			
2	ses-002	24	images_fmri/bike/bike_03s.jpg	unseen	615	52	3	None	124.0	1888.0	3.0	unseen-between	1	2	105.81	2.98	True	True	105.80368614196776	108.78729295730592	[['a', 106.9612979888916]]	-2.0	unseen	False	True	1.1512979888915993	2.9836068153381348	1.0	23.0	1619016291.73	False		False			
2	ses-002	25	images_fmri/soy_sauce/soy_sauce_03s.jpg	seen	6999	584	3	None	1501.0	21235.0	3.0	seen-between	2	2	110.28	2.98	True	False	110.27018117904665	113.24921202659608	[['x', 112.22048592567444]]	2.0	seen	False	True	1.940485925674437	2.9790308475494385	1.0	24.0	1619016296.1965	False		False	7.0	0.0	199.0
2	ses-002	26	images_fmri/elephant/elephant_03n.jpg	unseen	2763	231	3	None	555.0	8045.0	3.0	unseen-between	1	2	114.75	2.98	False	True	114.75214910507202	117.71731400489809	[['a', 117.51704502105713]]	1.0	seen	True	False	2.767045021057129	2.96516489982605	1.0	25.0	1619016300.6785	False		False			
2	ses-002	27	images_fmri/ball/ball_03s.jpg	seen	315	27	3	None	60.0	882.0	3.0	seen-between-within	3	2	119.22	2.98	False	True	119.22018003463744	122.20230317115784	[['b', 120.03161597251892]]	2.0	seen	False	True	0.811615972518922	2.9821231365203857	1.0	26.0	1619016305.1465	False		False	0.0	414.6063001155853	70.0
2	ses-002	28	images_fmri/noodle/noodle_03s.jpg	seen	5079	424	3	None	1062.0	15108.0	3.0	seen-between	2	2	123.69	2.98	True	True	123.68413805961607	126.66601896286012	[['x', 125.47053098678589]]	-1.0	unseen	True	False	1.780530986785891	2.9818809032440186	1.0	27.0	1619016309.6105	False		False	7.0	0.0	183.0
2	ses-002	29	images_fmri/horseshoe/horseshoe_03s.jpg	seen	3831	320	3	None	800.0	11440.0	3.0	seen-between	2	2	128.16	2.98	True	True	128.1502480506897	131.1332721710205	[['b', 129.1678328514099]]	2.0	seen	False	True	1.0078328514099155	2.9830241203308105	1.0	28.0	1619016314.0766	False		False	7.0	0.0	112.0
2	ses-002	30	images_fmri/mirror/mirror_03s.jpg	seen	4803	401	3	None	1006.0	14334.0	3.0	seen-between	2	2	132.63	2.98	True	False	132.6171669960022	135.60023713111875	[['a', 133.83284902572632]]	-2.0	unseen	True	True	1.202849025726323	2.983070135116577	1.0	29.0	1619016318.5435	False		False	7.0	0.0	131.0
2	ses-002	31	images_fmri/razor/razor_03s.jpg	seen	6171	515	3	None	1291.0	18372.0	3.0	seen-within-between	3	2	137.1	2.98	True	False	137.09944915771484	140.06491017341614	[['a', 138.7401659488678]]	-2.0	unseen	True	True	1.6401659488678035	2.965461015701294	1.0	30.0	1619016323.0258	False		False	7.0	0.0	220.0
2	ses-002	32	images_fmri/bobsled/bobsled_03s.jpg	seen	819	69	3	None	156.0	2382.0	3.0	seen-within	2	2	141.57	2.98	False	False	141.5653669834137	144.5498161315918	[['x', 142.59388995170593]]	2.0	seen	False	True	1.0238899517059394	2.9844491481781006	1.0	31.0	1619016327.4917	False		False	0.0	40.22720003128052	9.0
2	ses-002	33	images_fmri/frog/frog_03s.jpg	seen	3123	261	3	None	645.0	9284.0	3.0	seen-within-between	3	2	146.04	2.98	False	False	146.0333869457245	149.016841173172	[['x', 147.08230900764465]]	2.0	seen	False	True	1.0423090076446613	2.9834542274475098	1.0	32.0	1619016331.9597	False		False	7.0	0.0	96.0
2	ses-002	34	images_fmri/curtain/curtain_03s.jpg	unseen	2319	194	3	None	466.0	6757.0	3.0	unseen-within	1	2	150.51	2.98	False	False	150.4992311000824	153.48304796218872	[['y', 151.72547698020935]]	-2.0	unseen	False	True	1.2154769802093597	2.9838168621063232	1.0	33.0	1619016336.4256	False		False			
2	ses-002	35	images_fmri/giraffe/giraffe_03s.jpg	seen	3243	271	3	None	676.0	9673.0	3.0	seen-within	2	2	154.98	2.98	False	False	154.96593594551086	157.95298504829407	[['x', 155.7981128692627]]	2.0	seen	False	True	0.8181128692627055	2.987049102783203	1.0	34.0	1619016340.8923	False		False	0.0	125.1451997756958	28.0
2	ses-002	36	images_fmri/sewing_kit/sewing_kit_03s.jpg	unseen	6603	551	3	None	1407.0	19970.0	3.0	unseen-within	1	2	159.45	2.98	True	False	159.45185017585754	162.42045712471008	[['a', 160.7027280330658]]	-2.0	unseen	False	True	1.2527280330658073	2.968606948852539	1.0	35.0	1619016345.3782	False		False			
2	ses-002	37	images_fmri/bottle/bottle_03s.jpg	seen	867	73	3	None	171.0	2598.0	3.0	seen-within-between	3	2	163.92	2.98	False	True	163.91915106773376	166.9005889892578	[['b', 165.8162078857422]]	2.0	seen	False	True	1.8962078857422	2.981437921524048	1.0	36.0	1619016349.8455	False		False	7.0	0.0	176.0
2	ses-002	38	images_fmri/jeans/jeans_03s.jpg	seen	3999	334	3	None	843.0	12048.0	3.0	seen-within-between	3	2	168.39	2.98	True	False	168.3861141204834	171.3672251701355	[['x', 169.54874205589294]]	2.0	seen	False	True	1.158742055892958	2.9811110496521	1.0	37.0	1619016354.3125	False		False	7.0	0.0	188.0
2	ses-002	39	images_fmri/beet/beet_03s.jpg	seen	555	47	3	None	115.0	1753.0	3.0	seen-between-within	3	2	172.86	2.98	True	True	172.85278010368347	175.83539700508118	[['b', 173.72914290428162]]	2.0	seen	False	True	0.8691429042816026	2.982616901397705	1.0	38.0	1619016358.7791	False		False	0.0	325.1919000148773	50.0
2	ses-002	40	images_fmri/blender/blender_03s.jpg	unseen	723	61	3	None	139.0	2117.0	3.0	unseen-between	1	2	177.32999999999996	2.98	False	True	177.3181540966034	180.3028221130371	[['y', 178.32182002067566]]	-2.0	unseen	False	True	0.9918200206757036	2.984668016433716	1.0	39.0	1619016363.2445	False		False			
2	ses-002	41	images_fmri/mousse/mousse_03s.jpg	seen	4959	414	3	None	1031.0	14699.0	3.0	seen-within-between	3	2	181.8	2.98	True	True	181.80171394348145	184.76928210258484	[['b', 182.96544885635376]]	2.0	seen	False	True	1.1654488563537484	2.9675681591033936	1.0	40.0	1619016367.7281	False		False	7.0	0.0	223.0
2	ses-002	42	images_fmri/thermostat/thermostat_03s.jpg	seen	7659	639	3	None	1649.0	23284.0	3.0	seen-within-between	3	2	186.27	2.98	True	True	186.26914596557617	189.2475640773773	[['b', 188.07552289962769]]	2.0	seen	False	True	1.8055228996276755	2.9784181118011475	1.0	41.0	1619016372.1955	False		False	7.0	0.0	208.0
2	ses-002	43	images_fmri/soy_sauce/soy_sauce_03s.jpg	seen	6999	584	3	None	1501.0	21235.0	3.0	seen-between-within	3	2	190.74	2.98	True	False	190.73525714874268	193.7157671451569	[['x', 191.62885403633118]]	2.0	seen	False	True	0.8888540363311677	2.980509996414185	1.0	42.0	1619016376.6616	False		False	0.0	80.46510004997253	18.0
2	ses-002	44	images_fmri/helicopter/helicopter_03s.jpg	unseen	3735	312	3	None	776.0	11101.0	3.0	unseen-within	1	2	195.21	2.98	True	True	195.20138311386108	198.18309998512268	[['a', 197.024071931839]]	-2.0	unseen	False	True	1.8140719318389813	2.9817168712615967	1.0	43.0	1619016381.1277	False		False			
2	ses-002	45	images_fmri/gearshift/gearshift_03n.jpg	seen	3219	269	3	None	669.0	9587.0	3.0	seen-between	2	2	199.68	2.98	False	True	199.6680040359497	202.64967608451843	[['b', 201.54903101921082]]	2.0	seen	False	True	1.8690310192108088	2.9816720485687256	1.0	44.0	1619016385.5944	False		False	7.0	0.0	208.0
2	ses-002	46	images_fmri/joystick/joystick_03s.jpg	seen	4035	337	3	None	853.0	12202.0	3.0	seen-between-within	3	2	204.15	2.98	True	False	204.15102005004883	207.11904406547544	[['x', 205.10873103141785]]	2.0	seen	False	True	0.958731031417841	2.968024015426636	1.0	45.0	1619016390.0774	False		False	0.0	143.04959988594055	32.0
2	ses-002	47	images_fmri/curtain/curtain_03s.jpg	seen	2319	194	3	None	466.0	6757.0	3.0	seen-within	2	2	208.62	2.98	False	True	208.61837196350092	211.60202503204343	[['b', 209.6920349597931]]	2.0	seen	False	True	1.0720349597930865	2.9836530685424805	1.0	46.0	1619016394.5447	False		False	0.0	58.119099855422974	13.0
2	ses-002	48	images_fmri/cymbal/cymbal_03s.jpg	unseen	2331	195	3	None	469.0	6793.0	3.0	unseen-within	1	2	213.09	2.98	True	True	213.08541417121887	216.063560962677	[['a', 214.47963500022888]]	-2.0	unseen	False	True	1.3896350002288784	2.97814679145813	1.0	47.0	1619016399.0118	False		False			
2	ses-002	49	images_fmri/pear/pear_03s.jpg	seen	5427	453	3	None	1134.0	16143.0	3.0	seen-within	2	2	217.56	2.98	False	True	217.54762506484985	220.53076910972595	[['b', 218.42234802246094]]	2.0	seen	False	True	0.8623480224609352	2.983144044876098	1.0	48.0	1619016403.474	False		False	0.0	214.56319999694824	48.0
2	ses-002	50	images_fmri/pencil_sharpener/pencil_sharpener_03s.jpg	unseen	5475	457	3	None	1144.0	16271.0	3.0	unseen-within	1	2	222.03	2.98	False	False	222.01483511924744	224.99718403816223	[['a', 223.6121199131012]]	1.0	seen	True	False	1.5821199131011952	2.982348918914795	1.0	49.0	1619016407.9412	False		False			
2	ses-002	51	images_fmri/ready_meal/ready_meal_03s.jpg	unseen	6183	516	3	None	1293.0	18397.0	3.0	unseen-between	1	2	226.5	2.98	True	False	226.49779415130607	229.46441102027893	[['a', 228.11953902244568]]	-2.0	unseen	False	True	1.6195390224456787	2.9666168689727783	1.0	50.0	1619016412.4242	False		False			
2	ses-002	52	images_fmri/axe/axe_03n.jpg	unseen	255	22	3	None	46.0	635.0	3.0	unseen-between	1	2	230.97	2.98	True	False	230.96381902694705	233.94539999961853	[['a', 232.39502501487732]]	-2.0	unseen	False	True	1.4250250148773205	2.981580972671509	1.0	51.0	1619016416.8902	False		False			
2	ses-002	53	images_fmri/easel/easel_03s.jpg	seen	2691	225	3	None	543.0	7880.0	3.0	seen-within-between	3	2	235.44	2.98	True	True	235.4310660362244	238.4132800102234	[['b', 237.69186902046204]]	2.0	seen	False	True	2.2518690204620384	2.9822139739990234	1.0	52.0	1619016421.3574	False		False	7.0	0.0	246.0
2	ses-002	54	images_fmri/cymbal/cymbal_03s.jpg	seen	2331	195	3	None	469.0	6793.0	3.0	seen-within	2	2	239.91	2.98	True	False	239.8985161781311	242.880872964859	[['x', 240.9157910346985]]	2.0	seen	False	True	1.0057910346984895	2.9823567867279053	1.0	53.0	1619016425.8249	False		False	0.0	26.81309986114502	6.0
2	ses-002	55	images_fmri/bucket/bucket_03s.jpg	seen	1071	90	3	None	210.0	3155.0	3.0	seen-within-between	3	2	244.38	2.98	True	True	244.3807110786438	247.34744715690613	[['b', 245.97356700897217]]	2.0	seen	False	True	1.5935670089721723	2.966736078262329	1.0	54.0	1619016430.3071	False		False	7.0	0.0	124.0
2	ses-002	56	images_fmri/beachball/beachball_03s.jpg	seen	459	39	3	None	100.0	1497.0	3.0	seen-within-between	3	2	248.85	2.98	True	True	248.8473801612854	251.82821106910703	[['y', 250.41658806800842]]	1.0	seen	False	False	1.5665880680084283	2.980830907821656	1.0	55.0	1619016434.7737	False		False	7.0	0.0	224.0
2	ses-002	57	images_fmri/honeycomb/honeycomb_03s.jpg	seen	3795	317	3	None	790.0	11297.0	3.0	seen-within-between	3	2	253.32	2.98	False	True	253.3162109851837	256.2980840206146	[['b', 254.45994687080383]]	2.0	seen	False	True	1.1399468708038398	2.981873035430908	1.0	56.0	1619016439.2426	False		False	7.0	0.0	138.0
2	ses-002	58	images_fmri/bumper/bumper_03s.jpg	seen	1119	94	3	None	220.0	3295.0	3.0	seen-between	2	2	257.79	2.98	True	False	257.78411197662354	260.76505398750305	[['x', 260.40426802635193]]	2.0	seen	False	True	2.614268026351908	2.9809420108795166	1.0	57.0	1619016443.7105	False		False	7.0	0.0	161.0
2	ses-002	59	images_fmri/toilet_paper/toilet_paper_03s.jpg	seen	7779	649	3	None	1672.0	23596.0	3.0	seen-between-within	3	2	262.26	2.98	False	False	262.25006198883057	265.23389506340027	[['x', 263.1245470046997]]	2.0	seen	False	True	0.8645470046997161	2.983833074569702	1.0	58.0	1619016448.1764	False		False	0.0	169.84739995002747	38.0
2	ses-002	60	images_fmri/go-kart/go-kart_03s.jpg	seen	3279	274	3	None	683.0	9779.0	3.0	seen-between-within	3	2	266.73	2.98	False	True	266.73230814933777	269.7009439468384	[['b', 267.6379590034485]]	2.0	seen	False	True	0.907959003448468	2.9686357975006104	1.0	59.0	1619016452.6587	False		False	0.0	223.50959992408752	50.0
2	ses-002	1	images_fmri/barrel/barrel_03s.jpg	seen	411	35	3	None	77.0	1138.0	3.0	seen-between	2	3	3.0	2.98	False	False	2.984415054321289	5.966403961181641	[['x', 4.601453065872192]]	2.0	seen	False	True	1.6014530658721924	2.981988906860352	1.0	0.0	1619016555.2028	False		False	7.0	0.0	188.0
2	ses-002	2	images_fmri/milkshake/milkshake_03s.jpg	seen	4791	400	3	None	1003.0	14283.0	3.0	seen-between	2	3	7.47	2.98	True	False	7.45271897315979	10.434480905532835	[['y', 9.412400960922241]]	1.0	seen	False	False	1.9424009609222408	2.981761932373047	1.0	1.0	1619016559.6711	False		False	7.0	0.0	178.0
2	ses-002	3	images_fmri/fig/fig_03s.jpg	seen	2907	243	3	None	582.0	8421.0	3.0	seen-between	2	3	11.94	2.98	True	False	11.918694972991943	14.902906894683838	[['x', 13.205831050872803]]	2.0	seen	False	True	1.2658310508728032	2.9842119216918945	1.0	2.0	1619016564.1371	False		False	7.0	0.0	141.0
2	ses-002	4	images_fmri/lock/lock_03s.jpg	seen	4491	375	3	None	941.0	13432.0	3.0	seen-between	2	3	16.41	2.98	True	False	16.40091609954834	19.366729021072388	[['x', 17.83647394180298]]	2.0	seen	False	True	1.4264739418029784	2.965812921524048	1.0	3.0	1619016568.6193	False		False	7.0	0.0	124.0
2	ses-002	5	images_fmri/lasagna/lasagna_03s.jpg	seen	4251	355	3	None	899.0	12867.0	3.0	seen-within	2	3	20.88	2.98	True	False	20.86803793907165	23.851465940475464	[['x', 21.8572199344635]]	2.0	seen	False	True	0.977219934463502	2.9834280014038086	1.0	4.0	1619016573.0864	False		False	0.0	334.98920011520386	53.0
2	ses-002	6	images_fmri/pea/pea_03s.jpg	unseen	5391	450	3	None	1129.0	16076.0	3.0	unseen-within	1	3	25.35	2.98	True	True	25.33481407165528	28.317036867141724	[['a', 26.83552598953247]]	-2.0	unseen	False	True	1.4855259895324693	2.98222279548645	1.0	5.0	1619016577.5532	False		False			
2	ses-002	7	images_fmri/raft/raft_03s.jpg	seen	6111	510	3	None	1276.0	18174.0	3.0	seen-between	2	3	29.82	2.98	True	False	29.8024959564209	32.78630805015564	[['y', 31.807270050048828]]	1.0	seen	False	False	1.987270050048828	2.983812093734741	1.0	6.0	1619016582.0209	False		False	7.0	0.0	210.0
2	ses-002	8	images_fmri/sewing_kit/sewing_kit_03s.jpg	seen	6603	551	3	None	1407.0	19970.0	3.0	seen-within	2	3	34.29	2.98	False	True	34.272254943847656	37.25493288040161	[['b', 35.246341943740845]]	2.0	seen	False	True	0.9563419437408456	2.982677936553955	1.0	7.0	1619016586.4907	False		False	0.0	241.11249995231628	32.0
2	ses-002	9	images_fmri/mirror/mirror_03s.jpg	seen	4803	401	3	None	1006.0	14334.0	3.0	seen-between-within	3	3	38.76	2.98	False	False	38.75435209274292	41.720139026641846	[['x', 39.789483070373535]]	2.0	seen	False	True	1.0294830703735371	2.965786933898926	1.0	8.0	1619016590.9728	False		False	0.0	272.42930006980896	39.0
2	ses-002	10	images_fmri/aloe/aloe_03n.jpg	seen	63	6	3	None	15.0	207.0	3.0	seen-between	2	3	43.23	2.98	True	True	43.22120809555054	46.20000100135803	[['a', 44.698967933654785]]	-2.0	unseen	True	True	1.4689679336547885	2.978792905807495	1.0	9.0	1619016595.4396	False		False	7.0	0.0	154.0
2	ses-002	11	images_fmri/milkshake/milkshake_03s.jpg	seen	4791	400	3	None	1003.0	14283.0	3.0	seen-between-within	3	3	47.7	2.98	True	True	47.68384289741516	50.66782093048096	[['b', 48.58998107910156]]	2.0	seen	False	True	0.8899810791015597	2.983978033065796	1.0	10.0	1619016599.9023	False		False	0.0	40.2311999797821	9.0
2	ses-002	12	images_fmri/glass/glass_03s.jpg	seen	3267	273	3	None	678.0	9710.0	3.0	seen-within-between	3	3	52.17	2.98	True	True	52.151246070861816	55.1330828666687	[['y', 54.53301000595093]]	1.0	seen	False	False	2.363010005950926	2.9818367958068848	1.0	11.0	1619016604.3697	False		False	7.0	0.0	154.0
2	ses-002	13	images_fmri/cauliflower/cauliflower_03s.jpg	unseen	1503	126	3	None	289.0	4221.0	3.0	unseen-within	1	3	56.64	2.98	True	False	56.61817193031311	59.59968709945679	[['a', 57.7754180431366]]	-2.0	unseen	False	True	1.135418043136596	2.9815151691436768	1.0	12.0	1619016608.8366	False		False			
2	ses-002	14	images_fmri/shredder/shredder_03s.jpg	seen	6735	562	3	None	1438.0	20389.0	3.0	seen-between	2	3	61.11	2.98	False	False	61.09996509552002	64.06500792503357	[['x', 62.7673659324646]]	2.0	seen	False	True	1.6573659324646002	2.96504282951355	1.0	13.0	1619016613.3184	False		False	7.0	0.0	136.0
2	ses-002	15	images_fmri/shrimp/shrimp_03s.jpg	unseen	6747	563	3	None	1439.0	20403.0	3.0	unseen-between	1	3	65.58	2.98	True	True	65.56621599197388	68.5484459400177	[['a', 66.9790198802948]]	-2.0	unseen	False	True	1.3990198802948015	2.9822299480438232	1.0	14.0	1619016617.7846	False		False			
2	ses-002	16	images_fmri/cake/cake_03s.jpg	unseen	1239	104	3	None	238.0	3532.0	3.0	unseen-between	1	3	70.05	2.98	False	False	70.03280305862427	73.01879501342773	[['y', 71.56695008277893]]	-2.0	unseen	False	True	1.5169500827789335	2.985991954803467	1.0	15.0	1619016622.2512	False		False			
2	ses-002	17	images_fmri/shredder/shredder_03s.jpg	seen	6735	562	3	None	1438.0	20389.0	3.0	seen-between-within	3	3	74.52	2.98	True	True	74.50373888015747	77.48273205757141	[['b', 75.97387504577637]]	2.0	seen	False	True	1.4538750457763712	2.9789931774139404	1.0	16.0	1619016626.7221	False		False	0.0	13.403700113296509	3.0
2	ses-002	18	images_fmri/hula_hoop/hula_hoop_03s.jpg	seen	3891	325	3	None	811.0	11596.0	3.0	seen-between	2	3	78.99	2.98	True	True	78.98560500144958	81.95194005966187	[['b', 80.87088799476624]]	2.0	seen	False	True	1.8808879947662405	2.9663350582122803	1.0	17.0	1619016631.204	False		False	7.0	0.0	257.0
2	ses-002	19	images_fmri/chalk/chalk_03s.jpg	seen	1563	131	3	None	303.0	4413.0	3.0	seen-within	2	3	83.46	2.98	False	True	83.45189809799194	86.43641400337219	[['b', 84.38616704940796]]	2.0	seen	False	True	0.9261670494079652	2.984515905380249	1.0	18.0	1619016635.6703	False		False	0.0	370.7578999996185	61.0
2	ses-002	20	images_fmri/cockroach/cockroach_03s.jpg	seen	1863	156	3	None	374.0	5391.0	3.0	seen-within	2	3	87.92999999999998	2.98	False	True	87.91980600357056	90.90329098701476	[['b', 88.81385707855225]]	2.0	seen	False	True	0.8838570785522677	2.983484983444214	1.0	19.0	1619016640.1382	False		False	0.0	745.1328001022339	122.0
2	ses-002	21	images_fmri/ferret/ferret_03s.jpg	seen	2883	241	3	None	579.0	8374.0	3.0	seen-between	2	3	92.4	2.98	False	True	92.38494110107422	95.36547899246216	[['b', 94.51185297966003]]	2.0	seen	False	True	2.1118529796600285	2.9805378913879395	1.0	20.0	1619016644.6034	False		False	7.0	0.0	172.0
2	ses-002	22	images_fmri/mosquito/mosquito_03s.jpg	seen	4887	408	3	None	1021.0	14543.0	3.0	seen-between	2	3	96.87	2.98	False	True	96.85184407234192	99.83548402786256	[['b', 98.59110498428345]]	2.0	seen	False	True	1.7211049842834427	2.98363995552063	1.0	21.0	1619016649.0703	False		False	7.0	0.0	241.0
2	ses-002	23	images_fmri/mosquito/mosquito_03s.jpg	seen	4887	408	3	None	1021.0	14543.0	3.0	seen-between-within	3	3	101.34	2.98	False	False	101.33493208885191	104.30275893211363	[['x', 102.48695707321167]]	2.0	seen	False	True	1.1469570732116663	2.9678268432617188	1.0	22.0	1619016653.5533	False		False	0.0	4.482999801635742	1.0
2	ses-002	24	images_fmri/puck/puck_03s.jpg	unseen	5979	499	3	None	1246.0	17718.0	3.0	unseen-within	1	3	105.81	2.98	False	False	105.802316904068	108.78227090835573	[['y', 107.41814494132996]]	-2.0	unseen	False	True	1.6081449413299538	2.97995400428772	1.0	23.0	1619016658.0207	False		False			
2	ses-002	25	images_fmri/tarp/tarp_03s.jpg	unseen	7563	631	3	None	1629.0	23000.0	3.0	unseen-between	1	3	110.28	2.98	True	False	110.26597809791564	113.24725008010864	[['x', 112.10224294662476]]	2.0	seen	True	True	1.8222429466247547	2.981271982192993	1.0	24.0	1619016662.4844	False		False			
2	ses-002	26	images_fmri/hotplate/hotplate_03s.jpg	unseen	3855	322	3	None	807.0	11539.0	3.0	unseen-within	1	3	114.75	2.98	False	True	114.73170399665833	117.71386694908142	[['y', 116.57959294319153]]	-2.0	unseen	False	True	1.8295929431915283	2.982162952423096	1.0	25.0	1619016666.9501	False		False			
2	ses-002	27	images_fmri/blind/blind_03s.jpg	unseen	747	63	3	None	141.0	2143.0	3.0	unseen-between	1	3	119.22	2.98	False	False	119.20233297348022	122.18584895133972	[['y', 120.27939200401306]]	-2.0	unseen	False	True	1.0593920040130629	2.983515977859497	1.0	26.0	1619016671.4207	False		False			
2	ses-002	28	images_fmri/sea_urchin/sea_urchin_03s.jpg	unseen	6567	548	3	None	1394.0	19785.0	3.0	unseen-within	1	3	123.69	2.98	True	False	123.68438601493835	126.65063500404358	[['a', 125.2355420589447]]	-2.0	unseen	False	True	1.5455420589447044	2.9662489891052246	1.0	27.0	1619016675.9028	False		False			
2	ses-002	29	images_fmri/game/game_03s.jpg	seen	3147	263	3	None	655.0	9409.0	3.0	seen-within-between	3	3	128.16	2.98	True	False	128.15237998962402	131.13143110275269	[['x', 129.66295289993286]]	2.0	seen	False	True	1.5029528999328647	2.979051113128662	1.0	28.0	1619016680.3708	False		False	7.0	0.0	224.0
