subject	session	hit	miss	false_alarm	correct_rej	old	new	rate_hit_minus_FA	dprime	rt_hit	rt_miss	rt_FA	rt_CR	diff_rt_hit_minus_FA	hit_within	hit_between	hit_within_between	hit_between_within	miss_within	miss_between	miss_within_between	miss_between_within	old_within	old_between	old_within_between	old_between_within	rate_Hwith_min_FA	rate_Hbetw_min_FA	rate_Hwith_betw_min_FA	rate_Hbetw_with_min_FA	rt_hit_within	rt_hit_between	rt_hit_within_between	rt_hit_between_within	diff_rt_Hwith_min_Hbetw	rt_miss_within	rt_miss_between	rt_miss_within_between	rt_miss_between_within	hit_loConf	hit_hiConf	miss_loConf	miss_hiConf	FA_loConf	FA_hiConf	CR_loConf	CR_hiConf	dprime_hiConf	rt_hit_loConf	rt_hit_hiConf	rt_miss_loConf	rt_miss_hiConf	diff_rt_hitHC_minus_hitLC	rt_FA_loConf	rt_FA_hiConf	rt_CR_loConf	rt_CR_hiConf	hit_within_loConf	hit_between_loConf	hit_within_hiConf	hit_between_hiConf	hit_within_between_loConf	hit_between_within_loConf	hit_within_between_hiConf	hit_between_within_hiConf	miss_within_loConf	miss_between_loConf	miss_within_hiConf	miss_between_hiConf	miss_within_between_loConf	miss_between_within_loConf	miss_within_between_hiConf	miss_between_within_hiConf	rt_hit_within_loConf	rt_hit_between_loConf	rt_hit_within_hiConf	rt_hit_between_hiConf	rt_hit_within_between_loConf	rt_hit_between_within_loConf	rt_hit_within_between_hiConf	rt_hit_between_within_hiConf	rt_miss_within_loConf	rt_miss_between_loConf	rt_miss_within_hiConf	rt_miss_between_hiConf	rt_miss_within_between_loConf	rt_miss_between_within_loConf	rt_miss_within_between_hiConf	rt_miss_between_within_hiConf
sub-02	ses-001	56	4	0	120	60	120	0.9333333333333333	4.139343219520775	1.3224365203721185	1.5268335056304991		1.390627266168596		56	0	0	0	4	0	0	0	60	0	0	0	0.9333333333333333				1.3224365203721185					1.5268335056304991				1	55	0	4	0	0	1	119	4.021251400577388	1.6699459171295246	1.316118167703802		1.5268335056304991	-0.3538277494257225			1.973944005966187	1.3857254448257592	1	0	55	0	0	0	0	0	0	0	4	0	0	0	0	0	1.6699459171295246		1.316118167703802								1.5268335056304991					
sub-02	ses-002	208	17	29	87	225	116	0.6744444444444444	2.1101076055694636	1.2849497237113825	1.9346289505678096	2.06585278675474	1.74555662418234	-0.7809030630433575	53	49	49	57	0	8	9	0	53	57	58	57	0.75	0.6096491228070176	0.5948275862068966	0.75	1.0380001897631987	1.6151782224616233	1.558129070632313	0.9958504405774589	-0.5771780326984246		1.9140670871734615	1.9529061624738968		16	192	7	10	21	8	8	79	2.534377133284524	2.0795199108123796	1.2187355414529661	1.9867281886509502	1.8981594839096112	-0.8607843693594135	2.1938244220188685	1.7299272441864026	2.3573070812225314	1.6836072108111815	0	8	53	41	8	0	41	57	0	3	0	5	4	0	5	0		2.112591356039049	1.0380001897631987	1.5181220012757841	2.0464484655857103		1.4628472374706745	0.9958504405774589		1.8410545921325696		1.9578745841979965	2.0959833860397357		1.8384443836212256	
sub-02	ses-003	227	13	38	82	240	120	0.6291666666666667	2.0827700345484508	1.3021514785027197	2.071240128003637	1.7799912783974126	1.722104732466909	-0.47783979989469283	60	52	55	60	0	8	5	0	60	60	60	60	0.6833333333333333	0.55	0.6	0.6833333333333333	1.018934095064799	1.7151208208157476	1.574880066264759	0.9774608931541465	-0.6961867257509486		1.9761782217025798	2.223339178085328		27	200	7	6	18	20	17	65	1.934843132203402	2.0468316650390626	1.2016196533203134	2.1465262671879444	1.983406298955278	-0.8452120117187492	2.0663098568386538	1.5223045578002954	2.2142472878624457	1.593390525671153	0	16	60	36	11	0	44	60	0	5	0	3	2	0	3	0		2.065970035195352	1.018934095064799	1.5591878366470346	2.018994035720823		1.4638515739007432	0.9774608931541465		1.991203586578378		1.9511359469095833	2.5348329687118607		2.015676651000973	
sub-02	ses-004	228	12	38	82	240	120	0.6333333333333333	2.1218940554409156	1.1962747757058407	1.7120047577222193	1.755090982035588	1.6882908351246921	-0.5588162063297473	60	51	57	60	0	9	3	0	60	60	60	60	0.6833333333333333	0.5333333333333333	0.6333333333333333	0.6833333333333333	0.9670180861155193	1.5628277945051032	1.3756904436412603	0.9435165147781398	-0.5958097083895839		1.7447087150149874	1.6138928858439145		15	213	2	10	10	28	6	76	1.9412529133701613	2.0486225719451907	1.1362502830129286	2.2494888734817504	1.604507934570313	-0.9123722889322621	2.058497663497929	1.6467314529418948	2.141651997566227	1.6524991644056237	0	10	60	41	5	0	52	60	0	1	0	8	1	0	2	0		2.095495520591739	0.9670180861155193	1.432908836922997	1.9548766746520951		1.3199994598902183	0.9435165147781398		2.760888900756836		1.6176861917972563	1.738088846206665		1.5517949056625393	
sub-02	ses-005	230	10	46	74	240	120	0.575	2.0284022343821433	1.2954385898424245	1.7258071117401144	1.769083779583808	1.8080147347579139	-0.47364518974138337	60	54	56	60	0	6	4	0	60	60	60	60	0.6166666666666667	0.5166666666666666	0.55	0.6166666666666667	1.1128309836387649	1.6499927596692712	1.4171137365273085	1.0453839729626975	-0.5371617760305063		1.547884159088137	1.9926915407180807		30	200	6	4	31	15	26	48	2.117770946477709	1.806555583318077	1.2187710408210766	1.8028186957041445	1.610289735794069	-0.5877845424970005	1.9166693398260313	1.4640736217498798	2.0946055845113922	1.6527780244747798	0	23	60	31	7	0	49	60	0	3	0	3	3	0	1	0		1.8388204864833697	1.1128309836387649	1.509894768807198	1.700542330060687		1.3766239374511116	1.0453839729626975		1.7602903652191202		1.3354779529571534	1.8453470261891691		2.434725084304816	
sub-02	ses-006	221	19	45	75	240	120	0.5458333333333333	1.7293385424147723	1.2450688023804557	1.778609896710045	1.7342230377197274	1.718942712148031	-0.4891542353392717	60	46	55	60	0	14	5	0	60	60	60	60	0.625	0.3916666666666667	0.5416666666666666	0.625	1.0204877676963844	1.5830654760029006	1.4455308066281405	1.0267622167269408	-0.5625777083065162		1.708550428662983	1.9747764072418192		37	184	12	7	27	18	25	50	1.7643466803754342	1.8367426663476076	1.1260909058218436	2.035518411795301	1.3381952994210349	-0.7106517605257641	1.9555220964219846	1.4022744496663417	1.9605499744415262	1.5981390810012834	0	22	60	24	15	0	40	60	0	8	0	6	4	0	1	0		1.8198175967823373	1.0204877676963844	1.3660426986217502	1.8615661017100043		1.2895175709724418	1.0267622167269408		1.9726242625713397		1.3564519834518407	2.161306710243224		1.2286551952362004	
sub-02	ses-007	223	17	63	57	240	120	0.4041666666666667	1.406905966376386	1.2802029857721042	1.8020658694996556	1.7517966476319344	1.8667284033591296	-0.4715936618598302	60	49	54	60	0	11	6	0	60	60	60	60	0.475	0.29166666666666663	0.375	0.475	1.0704284868240372	1.6011688668387305	1.5521500114158342	0.9831030254364035	-0.5307403800146933		1.9135549631985782	1.5976691977182977		43	180	13	4	37	26	40	17	1.4579901255858558	1.826025354695877	1.1498120865292032	1.9049093481210557	1.467824563980105	-0.6762132681666737	1.9602398828558045	1.45516588981335	2.0309621403217326	1.4802960810941814	1	23	59	26	19	0	35	60	0	8	0	3	5	0	1	0	1.6530819320678631	1.8000537565480148	1.0605530047012603	1.4252322336343632	1.8665669431184475		1.3814665342058439	0.9831030254364035		2.0715095567703274		1.492342713673913	1.638349014282221		1.3942701148986814	
sub-02	ses-008	212	28	44	76	240	120	0.5166666666666666	1.5325109987691896	1.2200590498042574	1.8361836753572713	1.7831171694668873	1.748163365313883	-0.5630581196626299	60	39	54	59	0	21	6	1	60	60	60	60	0.6333333333333333	0.2833333333333334	0.5333333333333334	0.6166666666666667	1.04970842488607	1.6037449024885149	1.2922727870941173	1.073580192630575	-0.5540364776024449		1.8455382169995982	1.8998734013239453	1.2575999450683604	43	169	27	1	34	10	67	9	1.9194165083304648	1.7234956679233306	1.0919657090994042	1.8480214002397308	1.5165651035308656	-0.6315299588239265	1.943415070421557	1.2381043062210093	1.7449608735895883	1.7720041370391881	2	21	58	18	16	4	38	55	0	20	0	1	6	1	0	0	1.4183735752105804	1.9093732856568872	1.0369958334955696	1.247178455458747	1.5961792099475864	1.4094650530815116	1.1643121879979197	1.0491522027795979		1.8619868726730349		1.5165651035308656	1.8998734013239453	1.2575999450683604		
sub-02	ses-009	195	45	61	59	240	120	0.3041666666666667	0.8662564707719875	1.3116180396935886	1.8963404140472424	1.7650710002711587	1.7827972244004089	-0.4534529605775701	60	33	42	60	0	27	18	0	60	60	60	60	0.4916666666666667	0.04166666666666674	0.19166666666666665	0.4916666666666667	1.054529215335846	1.7030004252809468	1.7237104032153174	1.0649818975130738	-0.6484712099451007		1.6598764779832647	2.2510363181432087		56	139	37	8	50	11	48	11	1.530323583763506	1.8344034983430588	1.100999437647759	1.9943606224575563	1.4429969501495399	-0.7334040606952998	1.8537487922668479	1.3619901275634816	1.8305173351367336	1.574564013914629	1	23	59	10	31	1	11	59	0	20	0	7	17	0	1	0	1.880056152343741	1.8403921048537546	1.0405372333526615	1.386999562263489	1.8284070793274907	1.836901884078984	1.4286561341719202	1.0518985079102618		1.754273221015931		1.390171497889931	2.2768163888594684		1.8127751159668009	
sub-02	ses-010	219	21	42	78	240	120	0.5625	1.741632211742815	1.3065741005988982	1.787768009276618	1.6906770317895106	1.8509577892988165	-0.38410293119061234	60	45	54	60	0	15	6	0	60	60	60	60	0.65	0.4	0.55	0.65	1.043158621946972	1.7897111812167708	1.5466764780327127	0.9915446290969868	-0.7465525592697988		1.8432219104766854	1.6491332562764498		51	168	21	0	30	12	58	20	1.805952078252641	1.8888521895689134	1.1298111093044294	1.787768009276618		-0.759041080264484	1.8274424750010207	1.348763423760735	1.9142502871875116	1.6674095454216005	2	27	58	18	20	2	34	58	0	15	0	0	6	0	0	0	1.4995264816284215	2.0214018924148	1.0274217991993357	1.442175114419727	1.7619618635177627	1.7576601696014436	1.4200380159826835	0.9651268518382125		1.8432219104766854			1.6491332562764498			
sub-02	ses-011	221	19	47	73	240	120	0.5291666666666666	1.6856769274194017	1.3780635641279277	2.0488665465304714	1.8983649079343112	1.955287247487946	-0.5203013438063835	60	49	52	60	0	11	8	0	60	60	60	60	0.6083333333333334	0.425	0.47500000000000003	0.6083333333333334	1.1285752550760926	1.7139873615576313	1.6731132736572865	1.0975043570200609	-0.5854121064815387		2.078344888687136	2.0083338260650576		60	161	17	2	38	9	60	13	1.881746884545361	1.8361479333241781	1.2073488923777722	2.0653033626780775	1.9091536092758181	-0.6287990409464059	1.9813135011572591	1.548137514326309	1.9562230510711698	1.9509681540269113	3	31	57	18	25	1	27	59	0	10	0	1	7	0	1	0	1.6991356786092051	1.857066917727072	1.0985457591006655	1.467572570376928	1.8510995349884025	1.224906139373786	1.5083111798321795	1.0953450047767774		2.1100656766891506		1.7611370086669922	2.0013571998051165		2.057170209884644	
sub-02	ses-012	199	41	49	70	240	119	0.4174019607843138	1.173885130342307	1.3096270124157487	1.6137252807617182	1.8188869892821025	1.8227918653488175	-0.5092599768663537	60	32	47	60	0	28	13	0	60	60	60	60	0.5882352941176471	0.1215686274509804	0.3715686274509804	0.5882352941176471	1.140276535987856	1.6924046230316165	1.612135480515501	1.0378644631703724	-0.5521280870437606		1.6159699743134648	1.6088905561887263		67	132	35	6	42	7	61	9	1.690387818216873	1.7027702861045726	1.1100770174373304	1.6087815461839943	1.64256373246511	-0.5926932686672421	1.857685453551157	1.586096203667775	1.8438818517278466	1.6798486243353976	3	27	57	5	35	2	12	58	0	24	0	4	11	0	2	0	1.8846990648905428	1.7425135842076054	1.1010964028877148	1.4218162326812767	1.678748167037965	1.3137296772003122	1.4178484781583158	1.028351869583133		1.6272410432497673		1.548343560695649	1.5685062798586709		1.8310040760040316	
sub-02	ses-013	224	16	55	65	240	120	0.47500000000000003	1.6057194016581002	1.3395998563511038	2.0260925304889676	1.710873366269202	1.8680408223959135	-0.37127350991809815	60	52	52	60	0	8	8	0	60	60	60	60	0.5416666666666667	0.4083333333333334	0.4083333333333334	0.5416666666666667	1.012159503459931	1.7336225102497984	1.6741530871391321	1.0356077758471163	-0.7214630067898673		1.7953707718849197	2.2568142890930156		78	146	16	0	43	12	49	16	1.556529314513605	1.7999642336674242	1.0936517643601928	2.0260925304889676		-0.7063124693072313	1.7938337738569419	1.413598572413133	1.9007643183883374	1.7678251159191158	0	41	60	11	36	1	16	59	0	8	0	0	8	0	0	0		1.8319735510756334	1.012159503459931	1.367041358080777	1.7734240473641316	1.4430289268493652	1.4507934266328832	1.02870233260979		1.7953707718849197			2.2568142890930156			
sub-02	ses-014	212	28	40	80	240	120	0.55	1.6225434709768516	1.294984414532501	1.9354077509471366	1.7994350728988646	1.8327507154941571	-0.5044506583663637	60	39	53	60	0	21	7	0	60	60	60	60	0.6666666666666667	0.3166666666666667	0.55	0.6666666666666667	1.0542534319559747	1.6840254543989175	1.583996225213107	1.0275449550946545	-0.6297720224429428		1.9301648585001634	1.9511364282880561		74	138	27	1	38	2	74	6	2.3171636604577763	1.7009267486108346	1.0773051919107859	1.9224276309543202	2.2858709907531747	-0.6236215567000487	1.8333807797180977	1.1544666433334356	1.8306303669955293	1.8589016803105658	3	32	57	7	36	3	17	57	0	20	0	1	7	0	0	0	1.508816693623859	1.7417907482385677	1.030329049762928	1.4199555397033723	1.7026071180237692	1.4369897079467737	1.3328202169081762	1.0059952312603326		1.9123795518875126		2.2858709907531747	1.9511364282880561			
sub-02	ses-015	213	27	41	79	240	120	0.5458333333333333	1.6212583634335518	1.2794099229266394	1.9113754922372326	1.799130166449202	1.8288109040562126	-0.5197202435225627	60	44	49	60	0	16	11	0	60	60	60	60	0.6583333333333333	0.3916666666666666	0.475	0.6583333333333333	0.9894778760274257	1.7375703900510637	1.5949151015768264	0.9756950647036224	-0.7480925140236381		2.0070828872919084	1.7721647357940677		73	140	24	3	37	4	65	14	2.0443430300638394	1.725127026283579	1.0470002904619493	1.9138549617926282	1.8915397357940689	-0.6781267358216296	1.8264437528558721	1.5464794921875047	1.856395005006058	1.700741863931929	0	37	60	7	36	0	13	60	0	13	0	3	11	0	0	0		1.7809817971409987	0.9894778760274257	1.5081100954328364	1.6677207340134534		1.3932995040600138	0.9756950647036224		2.0337466914837177		1.8915397357940689	1.7721647357940677			
sub-02	ses-016	214	22	43	77	236	120	0.5484463276836158	1.6840993210932131	1.2772596776374052	1.6403925106742157	1.77617035222608	1.8087091651520182	-0.4989106745886749	59	46	51	58	1	12	9	0	60	58	60	58	0.625	0.43477011494252876	0.49166666666666664	0.6416666666666666	1.1096176666324447	1.6552214365420155	1.458222911311134	0.9889064504360326	-0.5456037699095708	1.2792571163177513	1.6528753844896962	1.6638748338487375		65	149	22	0	35	8	72	5	1.8365326585005548	1.7143414652897784	1.0865864145675777	1.6403925106742157		-0.6277550507222007	1.8691438508714961	1.3694112956523865	1.7872121361891442	2.1182663822174006	5	32	54	14	28	0	23	58	1	12	0	0	9	0	0	0	1.6726673965454117	1.8127683785557764	1.057483432381244	1.2951141405105615	1.6092953624044173		1.2743086230236587	0.9889064504360326	1.2792571163177513	1.6528753844896962			1.6638748338487375			
sub-02	ses-017	202	38	44	76	240	120	0.47500000000000003	1.3420261246134886	1.27683618092301	1.8646689269417225	1.8081142852523138	1.7736342425095417	-0.5312781043293038	60	39	43	60	0	21	17	0	60	60	60	60	0.6333333333333333	0.2833333333333334	0.35000000000000003	0.6333333333333333	1.0937039734522505	1.6467169808118758	1.5875329962442133	0.9968798174858106	-0.5530130073596253		1.9019720776875828	1.8185885642556596		61	141	38	0	38	6	67	9	1.8659723399490433	1.7147934524348547	1.0873653045951903	1.8646689269417225		-0.6274281478396644	1.8378049832896208	1.6200731976827012	1.7616854653429639	1.8625862503051762	5	27	55	12	29	0	14	60	0	21	0	0	17	0	0	0	1.50228937911987	1.7461729900925238	1.056559845664285	1.4229409599304177	1.7222166541527117		1.3085454191480375	0.9968798174858106		1.9019720776875828			1.8185885642556596			
sub-02	ses-018	216	24	57	63	240	120	0.42500000000000004	1.3442583434878141	1.2676324640380032	1.7305032591025034	1.850429724810417	1.926056451948862	-0.5827972607724137	59	44	53	60	1	16	7	0	60	60	60	60	0.5083333333333333	0.2583333333333333	0.4083333333333333	0.525	1.0393420982360857	1.6295703957297647	1.5562261469859004	0.9717724205652879	-0.590228297493679	1.6324658870696993	1.7238598793745035	1.7596934659140462		30	186	12	12	30	27	31	32	1.5108300527209386	1.9782537689209028	1.1530161245407613	1.919616938432058	1.5413895797729484	-0.8252376443801415	2.0993891626993837	1.5738081271560092	2.0142309807192875	1.8406373772025122	0	13	59	31	17	0	36	60	0	6	1	10	6	0	1	0		2.0063879225804326	1.0393420982360857	1.4715501425343231	1.9567394161224385		1.3670948810047576	0.9717724205652879		2.0409813499450684	1.6324658870696993	1.5335869970321645	1.798252526919048		1.528339099884036	
sub-02	ses-019	216	24	54	66	240	120	0.45	1.4072129123996744	1.271457040354059	1.85149239142736	1.7623761099356197	1.870361910010831	-0.4909190695815606	60	44	52	60	0	16	8	0	60	60	60	60	0.55	0.28333333333333327	0.4166666666666667	0.55	0.9740623162587491	1.6667569669810225	1.5996007444308376	0.9945739413897209	-0.6926946507222734		1.8828460216522231	1.788785130977633		52	164	22	2	36	18	55	11	1.5134738179832334	1.8381884455680872	1.091761716749611	1.818262468251317	2.2170215463638314	-0.7464267288184763	1.9628664358456942	1.3613954581154704	1.880796194943517	1.818190485347401	0	24	60	20	28	0	24	60	0	14	0	2	8	0	0	0		1.9193564744790412	0.9740623162587491	1.3636375579833995	1.768615849358698		1.4024164553483331	0.9945739413897209		1.8351066609791362		2.2170215463638314	1.788785130977633			
sub-02	ses-020	206	34	38	82	240	120	0.5416666666666666	1.5499017701394464	1.2524002551074822	1.9981034796098114	1.7303539215381845	1.843397989585322	-0.47795366643070225	60	36	50	60	0	24	10	0	60	60	60	60	0.6833333333333333	0.2833333333333333	0.5166666666666667	0.6833333333333333	1.0236754281188698	1.6007435087937234	1.55033636070802	1.023839041883902	-0.5770680806748536		1.9562258869479408	2.0986097019983005		59	147	31	3	31	7	71	11	1.8547605073800923	1.7005097706509367	1.0725467760798373	2.041740246443529	1.5471902223280622	-0.6279629945710994	1.8111551190529709	1.3725200468298442	1.873605001395944	1.648425458807671	3	26	57	10	30	0	20	60	0	22	0	2	9	0	1	0	1.2971655333042165	1.7330832187207212	1.0092812120564831	1.2566602629835284	1.7126138727251288		1.306920092682357	1.023839041883902		1.996590986216589		1.5122097949928097	2.152105104776049		1.6171510769985673	
sub-02	ses-021	216	24	56	64	240	120	0.43333333333333335	1.3652032994517294	1.2824210976805606	1.949672408716678	1.782301743123226	1.9593648173444316	-0.4998806454426654	60	44	52	60	0	16	8	0	60	60	60	60	0.5333333333333333	0.2666666666666666	0.4	0.5333333333333333	1.0251863866015325	1.6502025065878514	1.6027692850786655	0.9923143464825516	-0.6250161199863189		2.019370717382412	1.8102757913852092		75	141	24	0	50	6	60	4	1.8659723399490433	1.6776184430138537	1.0722097437798728	1.949672408716678		-0.6054086992339809	1.7846382976394168	1.7628304554883034	1.9698536283844161	1.8020326517446632	2	32	58	12	39	2	13	58	0	16	0	0	8	0	0	0	1.361552547995231	1.7227327309671099	1.0135875534500258	1.4567885749098288	1.6705551968729873	1.4095890305272718	1.3994115496956996	0.9779255642741129		2.019370717382412			1.8102757913852092			
sub-02	ses-022	223	17	47	73	240	120	0.5375000000000001	1.7445904932886047	1.2797282555509022	1.9435870174121395	1.812186920418693	1.968425549365014	-0.5324586648677907	60	50	53	60	0	10	7	0	60	60	60	60	0.6083333333333334	0.4416666666666667	0.49166666666666664	0.6083333333333334	1.0556905731763304	1.6827005564184403	1.5078539136193585	0.9664446892420551	-0.6270099832421099		2.0322492943932358	1.8169266217248585		69	154	16	1	38	9	61	12	1.8024487660778126	1.6861904377794994	1.097612082993933	1.9705351073753328	1.5124175780010418	-0.5885783547855663	1.8995290740206239	1.4434089385438729	1.9552282469967377	2.035511836403751	1	36	59	14	31	1	22	59	0	9	0	1	7	0	0	0	1.2466435419931088	1.773117601997155	1.052454082179436	1.4501995820731735	1.6088355418040812	1.394361196968248	1.3655616193590676	0.9591918670772044		2.0900083739923683		1.5124175780010418	1.8169266217248585			
sub-02	ses-023	213	27	39	81	240	120	0.5625	1.6671018126583965	1.2507894431273867	1.8676993397136117	1.8041009512921	1.8100670262964271	-0.5533115081647133	60	40	53	60	0	20	7	0	60	60	60	60	0.675	0.3416666666666666	0.5583333333333333	0.675	0.9597505155163445	1.6900400476192001	1.5932660263733274	0.9464736525433064	-0.7302895321028556		1.886051508710374	1.8152645711514335		66	147	24	3	34	5	65	16	2.0175052710034107	1.7125749611702854	1.0434571697203714	1.9143949270932386	1.494134640676594	-0.669117791449914	1.8604432865673253	1.4209730714205704	1.8344842563660926	1.7108720291384099	1	31	59	9	34	0	19	60	0	18	0	2	6	0	1	0	1.2756664290395603	1.7993591331811465	0.9543960085074764	1.313496530683607	1.6462984670465803		1.4983658693790853	0.9464736525433064		1.9355628786205037		1.4404491795192058	1.850891072511444		1.6015055629913704	
sub-02	ses-024	217	23	52	68	240	120	0.4708333333333333	1.4735585305179126	1.239349808736324	1.8555254205014624	2.0077336446116156	1.9846375602005086	-0.7683838358752917	60	43	54	60	0	17	6	0	60	60	60	60	0.5666666666666667	0.2833333333333333	0.4666666666666667	0.5666666666666667	0.9722906350835726	1.6045130403948475	1.5275557848297188	0.9853232878830781	-0.6322224053112749		1.862565271548159	1.8355791758691549		60	157	21	2	45	7	54	14	1.9655139187558943	1.7092014217871088	1.0597886827296548	1.859765177542742	1.8110079715680278	-0.649412739057454	2.131247404877616	1.2137166143301852	2.029875252614815	1.8101493180310402	1	26	59	17	33	0	21	60	0	15	0	2	6	0	0	0	1.4423343460727551	1.75611387375402	0.9643237925244339	1.3726529423161133	1.68032697707725		1.2874867684407418	0.9853232878830781		1.8694395782121767		1.8110079715680278	1.8355791758691549			
sub-02	ses-025	226	14	71	49	240	120	0.35	1.3370852700459164	1.195649730863414	1.8468857553554694	1.6118759076904616	1.9496679632350513	-0.41622617682704766	59	50	57	60	1	10	3	0	60	60	60	60	0.3916666666666666	0.2416666666666667	0.3583333333333333	0.4083333333333333	0.9330064481463675	1.5271230672745033	1.4791645454290232	0.9083487713552725	-0.5941166191281358	1.7477456399146265	1.8608438087226833	1.8334056159450374		46	180	14	0	43	28	47	2	1.402403041077726	1.8441208571782755	1.0299293319162826	1.8468857553554694		-0.8141915252619929	1.8157036827667086	1.2988546816805109	1.9317116485007046	2.3716413594922017	1	22	58	28	23	0	34	60	1	10	0	0	3	0	0	0	1.5273295828793323	1.8211959687582313	0.9227594975475232	1.2960657875372887	1.8798225449843593		1.208131192788649	0.9083487713552725	1.7477456399146265	1.8608438087226833			1.8334056159450374			
sub-02	ses-026	226	14	53	67	240	120	0.5	1.7156645879854748	1.161889695699814	1.761262641056507	1.5849168928433228	1.8294371277252381	-0.4230271971435089	60	54	52	60	0	6	8	0	60	60	60	60	0.5583333333333333	0.45833333333333337	0.42500000000000004	0.5583333333333333	0.9367690881556654	1.4075119391307946	1.4423534963235187	0.9228816569488683	-0.47074285097512925		1.9112487354905656	1.648773070230963		49	177	14	0	35	18	63	4	1.6720904031913726	1.6242742740409448	1.0338849254245852	1.761262641056507		-0.5903893486163596	1.7238786899994274	1.3147133983731196	1.8320357975335675	1.7885080782440497	1	28	59	26	20	0	32	60	0	6	0	0	8	0	0	0	1.2184355880459634	1.6424592219436163	0.9319950796829485	1.1544917884092945	1.6191072812769545		1.3318823807276214	0.9228816569488683		1.9112487354905656			1.648773070230963			
sub-02	ses-027	225	15	63	57	240	120	0.4125	1.4714137664093325	1.2861218463432988	2.023631240259236	1.9589470558667321	1.7788824740976614	-0.6728252095234333	60	48	57	60	0	12	3	0	60	60	60	60	0.475	0.275	0.42499999999999993	0.475	1.0190802960259224	1.6063660081195135	1.6054049283927192	0.9936491392927544	-0.587285712093591		2.017661101573903	2.0475117950005672		54	171	14	1	42	21	42	15	1.4952923229485635	1.8013681681778	1.1234124815534563	1.949293593564238	3.0643582939892084	-0.6779556866243437	2.2246985390879925	1.427444089424211	1.8226178407780225	1.656423447392651	0	26	60	22	28	0	29	60	0	12	0	0	2	0	1	0		1.7894366067269152	1.0190802960259224	1.3900098461289478	1.812447475239336		1.405501779713227	0.9936491392927544		2.017661101573903			1.5390885455062464		3.0643582939892084	
sub-02	ses-028	225	15	61	59	240	120	0.4291666666666667	1.513230456105658	1.2776460850528557	1.8266796077226009	1.7923748442193992	1.8144670844014936	-0.5147287591665435	60	50	55	60	0	10	5	0	60	60	60	60	0.4916666666666667	0.32500000000000007	0.4083333333333333	0.4916666666666667	1.0043873037808435	1.6497831196790582	1.5807012568730034	0.9629900966345637	-0.6453958158982147		1.8478691398832026	1.7843005434013974		73	152	15	0	56	5	52	7	2.0723592232100403	1.6691765049611524	1.0896084491758449	1.8266796077226009		-0.5795680557853076	1.8342926010215905	1.3228959680348567	1.8412785692070626	1.6152960544172668	0	37	60	13	35	1	20	59	0	10	0	0	5	0	0	0		1.6489230540009678	1.0043873037808435	1.652230998916701	1.7018781948585884	1.2739950440777363	1.36864161539823	0.9577188263389167		1.8478691398832026			1.7843005434013974			
sub-02	ses-029	219	21	50	70	240	120	0.4958333333333333	1.566740139583172	1.2655207926049825	1.7629550239732081	1.7868460404083146	1.68593984069316	-0.5213252478033321	60	50	49	60	0	10	11	0	60	60	60	60	0.5833333333333333	0.4166666666666667	0.39999999999999997	0.5833333333333333	0.974969739831519	1.6338405958870446	1.6025023318481235	0.9739370855948295	-0.6588708560555255		1.7600015657655945	1.7656399859801295		70	149	20	1	43	7	66	4	1.87658978531252	1.681438302230092	1.0701233048616428	1.786385360366203	1.2943482961133128	-0.6113149973684493	1.8258603060139398	1.5471869802594733	1.6969717115956837	1.5039139708015146	0	41	60	9	29	0	20	60	0	10	0	0	10	0	1	0		1.6519960905116355	0.974969739831519	1.5511322314861304	1.7230634981079098		1.4276886407714335	0.9739370855948295		1.7600015657655945			1.812769154966811		1.2943482961133128	
sub-02	ses-030	224	16	45	75	240	120	0.5583333333333333	1.8197253100084	1.2907522533998226	1.6279749946703692	1.7789423615373698	1.6045794018949064	-0.48819010813754726	60	51	53	60	0	9	7	0	60	60	60	60	0.625	0.475	0.5083333333333333	0.625	1.0651030565092063	1.7019959282208554	1.4751321501688988	1.0039754178798765	-0.6368928717116491		1.6307161278588103	1.6244506805709449		80	144	15	1	43	2	73	2	2.3813923373207837	1.64794285757607	1.0923130288574627	1.640748267110439	1.4363759080693228	-0.5556298287186072	1.7997289842878346	1.3320299724023812	1.6012696902483237	1.7253838769951817	4	37	56	14	36	3	17	57	0	8	0	1	7	0	0	0	1.4619928772910544	1.8040418180030477	1.036753783596217	1.4323032195107763	1.5078562071671084	1.6516954575975735	1.4058341471138671	0.9698848894736819		1.6550086553324963		1.4363759080693228	1.6244506805709449			
sub-02	ses-031	202	38	46	74	240	120	0.4583333333333333	1.298069135785591	1.2831945942329386	1.5315418622603543	1.8011752717609988	1.6073912095935476	-0.5179806775280602	60	37	45	60	0	23	15	0	60	60	60	60	0.6166666666666667	0.23333333333333334	0.36666666666666664	0.6166666666666667	1.0329078260685027	1.6565499611088164	1.5837901779119348	1.0777988650646686	-0.6236421350403136		1.4792133207416733	1.6117789592556653		64	138	38	0	38	8	71	3	1.6902043723168172	1.6838730542978744	1.0973726997100695	1.5315418622603543		-0.5865003545878049	1.920070106348908	1.2364248074684294	1.6092830429887284	1.5626178192409366	1	32	59	5	30	1	15	59	0	23	0	0	15	0	0	0	1.167783117908982	1.7032494662067628	1.0306218041729014	1.357673128481959	1.6941945607569073	1.270272615831345	1.3629814122219899	1.0745365981025214		1.4792133207416733			1.6117789592556653			
sub-02	ses-032	225	15	59	61	240	120	0.44583333333333336	1.5550106325994348	1.2600912687127803	1.5591548728669682	1.7934498036911688	1.7158045007841158	-0.5333585349783885	59	49	58	59	1	11	2	1	60	60	60	60	0.49166666666666664	0.325	0.47500000000000003	0.49166666666666664	1.0762801517287328	1.517793743851006	1.487087254375544	1.0067297000999913	-0.44151359212227326	1.0337246591970342	1.5689370553314	2.0782143295463236	0.9388621660694412	90	135	15	0	53	6	60	1	1.8021643115616435	1.5424148652934397	1.0718755376590072	1.5591548728669682		-0.4705393276344325	1.8318476032557083	1.4542692408710718	1.716984392941931	1.6450109713152017	8	36	51	13	44	2	14	57	1	11	0	0	2	1	0	0	1.5075281975534764	1.5707268825701135	1.0086333994424985	1.3712096673980925	1.5331385847401255	1.3764233974460751	1.3423545018011451	0.9937579914211814	1.0337246591970342	1.5689370553314			2.0782143295463236	0.9388621660694412		
sub-02	ses-033	212	28	41	79	240	120	0.5416666666666666	1.5997349126264289	1.2822599296132995	1.6553427331681783	1.8604767715549324	1.6691169673558106	-0.5782168419416329	59	45	48	60	1	15	12	0	60	60	60	60	0.6416666666666666	0.4083333333333333	0.45833333333333337	0.6583333333333333	1.0438923022337276	1.6571134855084972	1.5050598013796843	1.0572746988687056	-0.6132211832747696	1.3683253792860055	1.6802640013632673	1.6481092607478314		66	146	28	0	38	3	74	5	2.234941733509059	1.6521221178499141	1.1150619541090765	1.6553427331681783		-0.5370601637408376	1.8906533745749805	1.4782397999676558	1.6714278882090021	1.6349153387285753	2	35	57	10	29	0	19	60	1	15	0	0	12	0	0	0	1.9105194931197929	1.7068358688003273	1.0134843306236905	1.4830851439870911	1.568267771856665		1.408584478020082	1.0572746988687056	1.3683253792860055	1.6802640013632673			1.6481092607478314			
sub-02	ses-034	218	22	45	75	240	120	0.5333333333333333	1.6492008771432722	1.2422780467293921	1.802738056045478	1.672055663155588	1.7791522124267003	-0.42977761642619594	59	47	52	60	1	13	8	0	60	60	60	60	0.6083333333333333	0.4083333333333333	0.4916666666666667	0.625	1.0496846201695396	1.5945524006808933	1.4435527731154012	0.9812752427166965	-0.5448677805113538	1.2435993260002078	1.793151829230782	1.8882080158750183		74	144	22	0	37	8	72	3	1.7544330491798246	1.5837070260811204	1.066821487895865	1.802738056045478		-0.5168855381852553	1.7266146845135437	1.4197201893750435	1.7746014957639242	1.8883694123333257	3	37	56	10	32	2	20	58	1	13	0	0	8	0	0	0	1.7444762656666863	1.6699680447568064	1.012463639160764	1.3155145176000154	1.4871343341562764	1.2918873920000848	1.3738222754500014	0.9705644789483038	1.2435993260002078	1.793151829230782			1.8882080158750183			
sub-02	ses-035	195	45	35	85	240	120	0.5208333333333333	1.4356688417169738	1.3226589706829661	1.6781289688901877	1.8192416750900464	1.6065590281420796	-0.4965827044070803	60	35	40	60	0	25	20	0	60	60	60	60	0.7083333333333333	0.2916666666666667	0.37499999999999994	0.7083333333333333	1.088148288200106	1.7494788356839828	1.6116757764279022	1.1155135280852762	-0.6613305474838769		1.7703687665218508	1.5628292218506092		68	127	45	0	34	1	83	2	2.4671550429673283	1.7202854223696602	1.1097566185987522	1.6781289688901877		-0.610528803770908	1.837994860151702	1.181633382993752	1.6034425126399354	1.7358944214810634	0	35	60	0	32	1	8	59	0	25	0	0	20	0	0	0		1.7494788356839828	1.088148288200106		1.6907613252260487	1.6432870649639426	1.2953335812353162	1.1065682139008919		1.7703687665218508			1.5628292218506092			
sub-02	ses-036	184	56	32	88	240	120	0.5	1.3508390140917321	1.3562600112679735	1.7569145633780467	1.9000658537865112	1.674137801818143	-0.5438058425185377	59	31	35	59	1	29	25	1	60	60	60	60	0.7166666666666666	0.25000000000000006	0.3166666666666667	0.7166666666666666	1.1049913291057367	1.8453359008378423	1.6892891913158186	1.152996932780371	-0.7403445717321055	1.775261795972483	1.691919323839651	1.8509475101948738	1.272605606976413	68	116	56	0	31	1	88	0	2.3521905020020557	1.7472861073388024	1.1270378170195563	1.7569145633780467		-0.6202482903192461	1.8627965635544974	3.055413850978937	1.674137801818143		2	31	57	0	32	3	3	56	1	29	0	0	25	1	0	0	1.4857692980149277	1.8453359008378423	1.091630698617695		1.6817234201887217	1.6077847769988363	1.769990750004851	1.1286332982686678	1.775261795972483	1.691919323839651			1.8509475101948738	1.272605606976413		
