subject	session	TrialNumber	image_path	condition	image_nr	category_nr	exemplar_nr	test_image_nr	things_category_nr	things_image_nr	things_exemplar_nr	subcondition	repetition	run	onset	duration	response_mapping_flip_h	response_mapping_flip_v	onset_flip	offset_flip	keypresses	response	response_txt	error	response_confidence	response_time	duration_flip	ran	order	session_trial_time	atypical	atypical_log	exclude_session	delay_days	delay_seconds	trials_since_lastrep
03	ses-008	1	images_fmri/grapefruit/grapefruit_02s.jpg	seen	3398	284	2	None	704.0	10089.0	2.0	seen-within-between	3	4	3.0	2.98	False	True	2.9880828857421875	5.966881990432739	[['x', 4.7581071853637695], ['y', 5.495321989059448]]	-1.0	unseen	True	False	1.7581071853637695	2.978799104690552	1.0	0.0	1623262612.4964	False		False	7.0	0.0	192.0
03	ses-008	2	images_fmri/elephant/elephant_02n.jpg	seen	2762	231	2	None	555.0	8044.0	2.0	seen-within-between	3	4	7.47	2.98	False	True	7.453809976577759	10.43581199645996	[['a', 8.81112003326416], ['b', 9.847251176834106]]	1.0	seen	False	False	1.3411200332641604	2.982002019882202	1.0	1.0	1623262616.9621	False		False	7.0	0.0	343.0
03	ses-008	3	images_fmri/ruler/ruler_02s.jpg	seen	6398	534	2	None	1342.0	19083.0	2.0	seen-between	2	4	11.94	2.98	True	True	11.920952081680298	14.899638891220093	[['x', 14.239382982254028]]	-1.0	unseen	True	False	2.299382982254029	2.978686809539795	1.0	2.0	1623262621.4293	False		False	7.0	0.0	233.0
03	ses-008	4	images_fmri/extinguisher/extinguisher_02s.jpg	unseen	2798	234	2	None	564.0	8160.0	2.0	unseen-within	1	4	16.41	2.98	True	True	16.387281894683838	19.368977069854736	[['x', 17.904798984527588]]	-1.0	unseen	False	False	1.4947989845275875	2.9816951751708984	1.0	3.0	1623262625.8956	False		False			
03	ses-008	5	images_fmri/gearshift/gearshift_02s.jpg	seen	3218	269	2	None	669.0	9586.0	2.0	seen-within-between	3	4	20.88	2.98	False	True	20.869574069976807	23.836397886276245	[['a', 22.947885990142822]]	1.0	seen	False	False	2.0678859901428237	2.9668238162994385	1.0	4.0	1623262630.3779	False		False	7.0	0.0	381.0
03	ses-008	6	images_fmri/ship/ship_02s.jpg	unseen	6662	556	2	None	1422.0	20168.0	2.0	unseen-within	1	4	25.35	2.98	False	False	25.3348970413208	28.31696510314941	[['a', 27.186689138412476]]	1.0	seen	True	False	1.8366891384124744	2.9820680618286133	1.0	5.0	1623262634.8432	False		False			
03	ses-008	7	images_fmri/hotdog/hotdog_02s.jpg	seen	3842	321	2	None	806.0	11526.0	2.0	seen-between	2	4	29.82	2.98	False	True	29.799164056777958	32.782999992370605	[['b', 31.616501092910767]]	2.0	seen	False	True	1.7965010929107663	2.983835935592652	1.0	6.0	1623262639.3075	False		False	7.0	0.0	390.0
03	ses-008	8	images_fmri/shield/shield_02s.jpg	unseen	6650	555	2	None	1421.0	20156.0	2.0	unseen-within	1	4	34.29	2.98	False	True	34.26959204673767	37.248958110809326	[['y', 36.58063101768494]]	-2.0	unseen	False	True	2.2906310176849374	2.9793660640716557	1.0	7.0	1623262643.7779	False		False			
03	ses-008	9	images_fmri/applesauce/applesauce_02s.jpg	seen	194	17	2	None	33.0	459.0	2.0	seen-between	2	4	38.76	2.98	True	False	38.73743295669556	41.71867489814758	[['x', 40.67850708961487]]	2.0	seen	False	True	1.9185070896148704	2.9812419414520264	1.0	8.0	1623262648.2458	False		False	7.0	0.0	368.0
03	ses-008	10	images_fmri/airbag/airbag_02s.jpg	unseen	14	2	2	None	8.0	99.0	2.0	unseen-between	1	4	43.23	2.98	True	False	43.21965503692627	46.184468030929565	[['a', 45.42990303039551]]	-2.0	unseen	False	True	2.199903030395511	2.964812994003296	1.0	9.0	1623262652.7280	False		False			
03	ses-008	11	images_fmri/melon/melon_02s.jpg	unseen	4742	396	2	None	995.0	14164.0	2.0	unseen-within	1	4	47.7	2.98	True	False	47.6881160736084	50.66562604904175	[['b', 49.949743032455444]]	-1.0	unseen	False	False	2.249743032455441	2.9775099754333496	1.0	10.0	1623262657.1964	False		False			
03	ses-008	12	images_fmri/barnacle/barnacle_02s.jpg	seen	398	34	2	None	76.0	1125.0	2.0	seen-between	2	4	52.17	2.98	False	True	52.15343999862671	55.13486695289612	[['b', 53.55467700958252]]	2.0	seen	False	True	1.3846770095825178	2.981426954269409	1.0	11.0	1623262661.6618	False		False	7.0	0.0	426.0
03	ses-008	13	images_fmri/gravel/gravel_02n.jpg	unseen	3434	287	2	None	710.0	10184.0	2.0	unseen-within	1	4	56.64	2.98	True	True	56.62037706375122	59.60178089141846	[['y', 59.04951000213623], ['x', 60.32951617240906]]	1.0	seen	True	False	2.40951000213623	2.9814038276672363	1.0	12.0	1623262666.1287	False		False			
03	ses-008	14	images_fmri/ribbon/ribbon_02s.jpg	unseen	6266	523	2	None	1309.0	18632.0	2.0	unseen-between	1	4	61.11	2.98	False	True	61.09870195388794	64.0688169002533	[['b', 62.461585998535156], ['y', 62.835057973861694]]	2.0	seen	True	True	1.3515859985351568	2.9701149463653564	1.0	13.0	1623262670.6070	False		False			
03	ses-008	15	images_fmri/toast/toast_02s.jpg	seen	7742	646	2	None	1666.0	23514.0	2.0	seen-between	2	4	65.58	2.98	False	False	65.5695219039917	68.53366994857788	[['y', 67.24037599563599]]	-2.0	unseen	True	True	1.660375995635988	2.9641480445861816	1.0	14.0	1623262675.0778	False		False	7.0	0.0	209.0
03	ses-008	16	images_fmri/guacamole/guacamole_02s.jpg	seen	3494	292	2	None	720.0	10312.0	2.0	seen-between-within	3	4	70.05	2.98	True	False	70.03561806678772	73.01927995681763	[['x', 71.07396411895752]]	2.0	seen	False	True	1.0239641189575224	2.9836618900299072	1.0	15.0	1623262679.5439	False		False	0.0	1256.0901000499725	174.0
03	ses-008	17	images_fmri/boxer_shorts/boxer_shorts_02s.jpg	seen	902	76	2	None	183.0	2772.0	2.0	seen-within-between	3	4	74.52	2.98	False	False	74.50159311294556	77.48888206481934	[['x', 75.63668012619019]]	2.0	seen	False	True	1.1166801261901895	2.9872889518737797	1.0	16.0	1623262684.0099	False		False	7.0	0.0	509.0
03	ses-008	18	images_fmri/pacifier/pacifier_02s.jpg	unseen	5222	436	2	None	1094.0	15574.0	2.0	unseen-between	1	4	78.99	2.98	True	False	78.96975898742676	81.94923496246338	[['b', 80.60003113746643]]	-1.0	unseen	False	False	1.6100311374664358	2.979475975036621	1.0	17.0	1623262688.4781	False		False			
03	ses-008	19	images_fmri/breadbox/breadbox_02s.jpg	seen	986	83	2	None	196.0	2967.0	2.0	seen-within	2	4	83.46	2.98	True	False	83.4529230594635	86.41782593727112	[['x', 84.36037516593933]]	2.0	seen	False	True	0.9003751659393373	2.964902877807617	1.0	18.0	1623262692.9612	False		False	0.0	224.74460005760193	28.0
03	ses-008	20	images_fmri/flashbulb/flashbulb_02s.jpg	unseen	2990	250	2	None	611.0	8828.0	2.0	unseen-within	1	4	87.92999999999998	2.98	True	True	87.91881108283997	90.89808011054993	[['a', 89.33044099807739]]	-2.0	unseen	False	True	1.4004409980774142	2.979269027709961	1.0	19.0	1623262697.4271	False		False			
03	ses-008	21	images_fmri/seesaw/seesaw_02s.jpg	seen	6590	550	2	None	1403.0	19918.0	2.0	seen-between	2	4	92.4	2.98	True	False	92.38554000854492	95.36709499359132	[['b', 94.19583106040955]]	-1.0	unseen	True	False	1.7958310604095402	2.9815549850463867	1.0	20.0	1623262701.8939	False		False	7.0	0.0	478.0
03	ses-008	22	images_fmri/parachute/parachute_02s.jpg	unseen	5354	447	2	None	1119.0	15909.0	2.0	unseen-within	1	4	96.87	2.98	False	False	96.85296392440796	99.8339490890503	[['y', 98.57685708999634]]	-2.0	unseen	False	True	1.7068570899963331	2.980985164642334	1.0	21.0	1623262706.3613	False		False			
03	ses-008	23	images_fmri/forklift/forklift_02s.jpg	unseen	3110	260	2	None	636.0	9168.0	2.0	unseen-between	1	4	101.34	2.98	False	True	101.31965708732604	104.30049705505373	[['y', 102.89854502677917]]	-2.0	unseen	False	True	1.5585450267791714	2.980839967727661	1.0	22.0	1623262710.8280	False		False			
03	ses-008	24	images_fmri/seesaw/seesaw_02s.jpg	seen	6590	550	2	None	1403.0	19918.0	2.0	seen-between-within	3	4	105.81	2.98	True	True	105.80079889297484	108.76712203025818	[['b', 106.75762796401978]]	2.0	seen	False	True	0.9476279640197732	2.966323137283325	1.0	23.0	1623262715.3091	False		False	0.0	13.415199995040894	3.0
03	ses-008	25	images_fmri/pencil_sharpener/pencil_sharpener_02s.jpg	seen	5474	457	2	None	1144.0	16270.0	2.0	seen-between-within	3	4	110.28	2.98	True	True	110.26897501945496	113.25083708763124	[['b', 111.28106617927551]]	2.0	seen	False	True	1.0010661792755116	2.981862068176269	1.0	24.0	1623262719.7773	False		False	0.0	618.8204998970032	93.0
03	ses-008	26	images_fmri/shield/shield_02s.jpg	seen	6650	555	2	None	1421.0	20156.0	2.0	seen-within	2	4	114.75	2.98	True	True	114.73494911193848	117.71568989753725	[['b', 115.61044001579285]]	2.0	seen	False	True	0.8604400157928467	2.980740785598755	1.0	25.0	1623262724.2433	False		False	0.0	80.46539998054504	18.0
03	ses-008	27	images_fmri/sloth/sloth_02s.jpg	unseen	6854	572	2	None	1472.0	20852.0	2.0	unseen-between	1	4	119.22	2.98	True	True	119.20192503929138	122.18336701393127	[['y', 121.25103712081909], ['x', 122.84169411659241]]	1.0	seen	True	False	2.031037120819093	2.9814419746398926	1.0	26.0	1623262728.7102	False		False			
03	ses-008	28	images_fmri/elbow/elbow_02s.jpg	seen	2750	230	2	None	553.0	8018.0	2.0	seen-within-between	3	4	123.69	2.98	True	True	123.6672990322113	126.64991903305054	[['b', 125.60048699378967]]	2.0	seen	False	True	1.9104869937896751	2.9826200008392334	1.0	27.0	1623262733.1756	False		False	7.0	0.0	264.0
03	ses-008	29	images_fmri/cufflink/cufflink_02s.jpg	unseen	2282	191	2	None	459.0	6639.0	2.0	unseen-within	1	4	128.16	2.98	True	False	128.15099501609802	131.11480689048767	[['b', 130.14044499397278]]	-1.0	unseen	False	False	1.9804449939727815	2.9638118743896484	1.0	28.0	1623262737.6593	False		False			
03	ses-008	30	images_fmri/boot/boot_02s.jpg	seen	854	72	2	None	170.0	2581.0	2.0	seen-within	2	4	132.63	2.98	False	True	132.61521291732788	135.59840202331543	[['b', 133.50330996513367]]	2.0	seen	False	True	0.8733099651336715	2.983189105987549	1.0	29.0	1623262742.1235	False		False	0.0	287.3232002258301	42.0
03	ses-008	31	images_fmri/towel_rack/towel_rack_02s.jpg	seen	7898	659	2	None	1694.0	23899.0	2.0	seen-within	2	4	137.1	2.98	False	True	137.0825319290161	140.0664579868317	[['b', 138.73962497711182]]	2.0	seen	False	True	1.639624977111822	2.983926057815552	1.0	30.0	1623262746.5909	False		False	0.0	828.8950998783112	140.0
03	ses-008	32	images_fmri/bullet/bullet_02s.jpg	seen	1106	93	2	None	217.0	3257.0	2.0	seen-between-within	3	4	141.57	2.98	False	False	141.55134391784668	144.53589510917664	[['x', 142.51449298858643]]	2.0	seen	False	True	0.9444929885864326	2.984551191329956	1.0	31.0	1623262751.0597	False		False	0.0	1332.0697000026703	191.0
03	ses-008	33	images_fmri/compass/compass_02s.jpg	unseen	1946	163	2	None	393.0	5651.0	2.0	unseen-within	1	4	146.04	2.98	True	True	146.01906299591064	148.9978940486908	[['y', 147.90240597724915], ['x', 148.99170899391174]]	1.0	seen	True	False	1.8624059772491532	2.978831052780152	1.0	32.0	1623262755.5274	False		False			
03	ses-008	34	images_fmri/hedgehog/hedgehog_02s.jpg	unseen	3722	311	2	None	775.0	11085.0	2.0	unseen-between	1	4	150.51	2.98	False	False	150.49675703048706	153.46793794631958	[['b', 152.3852550983429], ['y', 153.41283202171326]]	-1.0	unseen	False	False	1.8752550983429048	2.9711809158325195	1.0	33.0	1623262760.0051	False		False			
03	ses-008	35	images_fmri/anvil/anvil_02s.jpg	unseen	170	15	2	None	29.0	393.0	2.0	unseen-between	1	4	154.98	2.98	True	False	154.96331310272217	157.9465250968933	[['y', 157.8079869747162], ['b', 158.82164406776428]]	1.0	seen	True	False	2.8279869747161968	2.9832119941711426	1.0	34.0	1623262764.4716	False		False			
03	ses-008	36	images_fmri/eyepiece/eyepiece_02s.jpg	seen	2822	236	2	None	569.0	8233.0	2.0	seen-within	2	4	159.45	2.98	True	True	159.4298129081726	162.41594290733337	[['b', 160.59197807312012]]	2.0	seen	False	True	1.1419780731201286	2.9861299991607666	1.0	35.0	1623262768.9381	False		False	0.0	287.30599999427795	42.0
03	ses-008	37	images_fmri/hotdog/hotdog_02s.jpg	seen	3842	321	2	None	806.0	11526.0	2.0	seen-between-within	3	4	163.92	2.98	True	False	163.8986508846283	166.88396191596985	[['x', 164.7711579799652]]	2.0	seen	False	True	0.8511579799652225	2.9853110313415527	1.0	36.0	1623262773.4070	False		False	0.0	134.09950017929077	30.0
03	ses-008	38	images_fmri/applesauce/applesauce_02s.jpg	seen	194	17	2	None	33.0	459.0	2.0	seen-between-within	3	4	168.39	2.98	False	True	168.36736488342285	171.35143995285034	[['b', 169.19105005264282]]	2.0	seen	False	True	0.8010500526428359	2.9840750694274902	1.0	37.0	1623262777.8757	False		False	0.0	129.6298999786377	29.0
03	ses-008	39	images_fmri/potato/potato_02n.jpg	unseen	5894	492	2	None	1232.0	17519.0	2.0	unseen-between	1	4	172.86	2.98	True	False	172.84916400909424	175.81725311279297	[['a', 174.90813398361206]]	-2.0	unseen	False	True	2.048133983612047	2.9680891036987305	1.0	38.0	1623262782.3575	False		False			
03	ses-008	40	images_fmri/gravel/gravel_02n.jpg	seen	3434	287	2	None	710.0	10184.0	2.0	seen-within	2	4	177.32999999999996	2.98	False	False	177.31559109687805	180.2981050014496	[['x', 178.42597103118896]]	2.0	seen	False	True	1.0959710311890092	2.982513904571533	1.0	39.0	1623262786.8239	False		False	0.0	120.69519996643066	27.0
03	ses-008	41	images_fmri/compass/compass_02s.jpg	seen	1946	163	2	None	393.0	5651.0	2.0	seen-within	2	4	181.8	2.98	True	True	181.7833580970764	184.76791501045227	[['b', 182.64102816581726]]	2.0	seen	False	True	0.8410281658172494	2.9845569133758545	1.0	40.0	1623262791.2917	False		False	0.0	35.76429986953735	8.0
03	ses-008	42	images_fmri/crouton/crouton_02n.jpg	seen	2210	185	2	None	446.0	6451.0	2.0	seen-within-between	3	4	186.27	2.98	False	False	186.24714303016663	189.2292120456696	[['a', 188.2452630996704]]	1.0	seen	False	False	1.9752630996704	2.9820690155029297	1.0	41.0	1623262795.7555	False		False	7.0	0.0	288.0
03	ses-008	43	images_fmri/broccoli/broccoli_02s.jpg	seen	1010	85	2	None	202.0	3049.0	2.0	seen-between	2	4	190.74	2.98	True	False	190.7161819934845	193.6988549232483	[['b', 192.33431100845337]]	-1.0	unseen	True	False	1.59431100845336	2.982672929763794	1.0	42.0	1623262800.2245	False		False	7.0	0.0	460.0
03	ses-008	44	images_fmri/earwig/earwig_02s.jpg	seen	2678	224	2	None	542.0	7865.0	2.0	seen-between	2	4	195.21	2.98	False	True	195.1994519233704	198.1618950366974	[['y', 196.96726417541504]]	-2.0	unseen	True	True	1.757264175415031	2.9624431133270264	1.0	43.0	1623262804.7078	False		False	7.0	0.0	518.0
03	ses-008	45	images_fmri/dress/dress_02s.jpg	seen	2594	217	2	None	519.0	7528.0	2.0	seen-between-within	3	4	199.68	2.98	False	True	199.66341400146484	202.64676809310916	[['b', 200.74930119514465]]	2.0	seen	False	True	1.0693011951446465	2.983354091644287	1.0	44.0	1623262809.1717	False		False	0.0	461.6507999897003	81.0
03	ses-008	46	images_fmri/melon/melon_02s.jpg	seen	4742	396	2	None	995.0	14164.0	2.0	seen-within	2	4	204.15	2.98	False	False	204.13037395477292	207.1132760047913	[['x', 205.1636199951172]]	2.0	seen	False	True	1.0136199951171818	2.9829020500183105	1.0	45.0	1623262813.6387	False		False	0.0	156.44230008125305	35.0
03	ses-008	47	images_fmri/toast/toast_02s.jpg	seen	7742	646	2	None	1666.0	23514.0	2.0	seen-between-within	3	4	208.62	2.98	False	False	208.59544491767883	211.5788118839264	[['x', 209.48529314994812]]	2.0	seen	False	True	0.8652931499481156	2.9833669662475586	1.0	46.0	1623262818.1038	False		False	0.0	143.02600002288818	32.0
03	ses-008	48	images_fmri/ruler/ruler_02s.jpg	seen	6398	534	2	None	1342.0	19083.0	2.0	seen-between-within	3	4	213.09	2.98	False	False	213.06209111213684	216.046884059906	[['x', 213.90481400489807]]	2.0	seen	False	True	0.8148140048980679	2.984792947769165	1.0	47.0	1623262822.5704	False		False	0.0	201.14109992980957	45.0
03	ses-008	49	images_fmri/pan/pan_02s.jpg	seen	5270	440	2	None	1104.0	15706.0	2.0	seen-within-between	3	4	217.56	2.98	False	True	217.5467109680176	220.51333498954773	[['a', 219.40832805633545]]	1.0	seen	False	False	1.848328056335447	2.966624021530152	1.0	48.0	1623262827.0550	False		False	7.0	0.0	266.0
03	ses-008	50	images_fmri/rat/rat_02s.jpg	seen	6146	513	2	None	1286.0	18302.0	2.0	seen-between	2	4	222.03	2.98	False	False	222.01187705993647	224.9940400123596	[['b', 223.68239307403564]]	-1.0	unseen	True	False	1.6523930740356434	2.982162952423096	1.0	49.0	1623262831.5202	False		False	7.0	0.0	260.0
03	ses-008	51	images_fmri/burner/burner_02s.jpg	seen	1154	97	2	None	225.0	3357.0	2.0	seen-between	2	4	226.5	2.98	False	False	226.47855496406555	229.46128606796265	[['a', 228.3299651145935]]	1.0	seen	False	False	1.8299651145935056	2.9827311038970947	1.0	50.0	1623262835.9869	False		False	7.0	0.0	251.0
03	ses-008	52	images_fmri/otter/otter_02s.jpg	seen	5186	433	2	None	1086.0	15454.0	2.0	seen-between-within	3	4	230.97	2.98	True	True	230.9473431110382	233.93092894554135	[['b', 232.54173612594604]]	2.0	seen	False	True	1.571736125946046	2.983585834503174	1.0	51.0	1623262840.4557	False		False	0.0	962.9930000305176	170.0
03	ses-008	53	images_fmri/fern/fern_02n.jpg	seen	2870	240	2	None	578.0	8361.0	2.0	seen-within-between	3	4	235.44	2.98	True	False	235.43184995651245	238.39790296554563	[['y', 237.32694005966187]]	1.0	seen	False	False	1.8869400596618675	2.966053009033203	1.0	52.0	1623262844.9402	False		False	7.0	0.0	319.0
03	ses-008	54	images_fmri/limousine/limousine_02s.jpg	seen	4406	368	2	None	932.0	13306.0	2.0	seen-within	2	4	239.91	2.98	False	False	239.89927196502688	242.88065910339355	[['x', 240.775897026062]]	2.0	seen	False	True	0.8658970260620151	2.981387138366699	1.0	53.0	1623262849.4076	False		False	0.0	726.0995998382568	117.0
03	ses-008	55	images_fmri/pot/pot_02s.jpg	unseen	5882	491	2	None	1231.0	17503.0	2.0	unseen-between	1	4	244.38	2.98	False	False	244.3653280735016	247.34523105621335	[['y', 246.10196113586426]]	-2.0	unseen	False	True	1.7219611358642624	2.979902982711792	1.0	54.0	1623262853.8737	False		False			
03	ses-008	56	images_fmri/flashbulb/flashbulb_02s.jpg	seen	2990	250	2	None	611.0	8828.0	2.0	seen-within	2	4	248.85	2.98	True	True	248.83239793777463	251.8141849040985	[['b', 249.75662398338318]]	2.0	seen	False	True	0.9066239833831844	2.9817869663238525	1.0	55.0	1623262858.3407	False		False	0.0	160.91359996795654	36.0
03	ses-008	57	images_fmri/axe/axe_02n.jpg	unseen	254	22	2	None	46.0	634.0	2.0	unseen-within	1	4	253.32	2.98	True	False	253.2993929386139	256.27783608436584	[['a', 254.8515419960022]]	-2.0	unseen	False	True	1.531541996002204	2.978443145751953	1.0	56.0	1623262862.8077	False		False			
03	ses-008	58	images_fmri/punch1/punch1_02s.jpg	seen	6014	502	2	None	1255.0	17875.0	2.0	seen-within-between	3	4	257.79	2.98	True	False	257.7805140018463	260.74823689460754	[['b', 260.0840480327606]]	-1.0	unseen	True	False	2.2940480327606	2.9677228927612305	1.0	57.0	1623262867.2888	False		False	7.0	0.0	362.0
03	ses-008	59	images_fmri/alligator/alligator_02s.jpg	unseen	50	5	2	None	13.0	179.0	2.0	unseen-between	1	4	262.26	2.98	False	True	262.2469570636749	265.22955107688904	[['x', 263.7006130218506]]	-1.0	unseen	False	False	1.440613021850595	2.9825940132141118	1.0	58.0	1623262871.7553	False		False			
03	ses-008	60	images_fmri/hairbrush/hairbrush_02s.jpg	seen	3554	297	2	None	735.0	10537.0	2.0	seen-within-between	3	4	266.73	2.98	True	True	266.71305108070374	269.6965479850769	[['x', 267.95766401290894]]	-1.0	unseen	True	False	1.2276640129089174	2.983496904373169	1.0	59.0	1623262876.2214	False		False	7.0	0.0	575.0
