subject	session	TrialNumber	image_path	condition	image_nr	category_nr	exemplar_nr	test_image_nr	things_category_nr	things_image_nr	things_exemplar_nr	subcondition	repetition	run	onset	duration	response_mapping_flip_h	response_mapping_flip_v	onset_flip	offset_flip	keypresses	response	response_txt	error	response_confidence	response_time	duration_flip	ran	order	session_trial_time	atypical	atypical_log	exclude_session	delay_days	delay_seconds	trials_since_lastrep
06	ses-014	1	images_fmri/tadpole/tadpole_04s.jpg	unseen	7516	627	4	None	1615.0	22804.0	4.0	unseen-within	1	2	3.0	2.98	True	True	2.9966399669647217	5.9795520305633545	[['a', 6.112997055053711]]	-2.0	unseen	False	True	3.112997055053711	2.982912063598633	1.0	0.0	1626896271.2067	False		False			
06	ses-014	2	images_fmri/lock/lock_04s.jpg	seen	4492	375	4	None	941.0	13433.0	4.0	seen-within-between	3	2	7.47	2.98	False	False	7.462737083435059	10.44609808921814	[['x', 9.306655883789062]]	2.0	seen	False	True	1.8366558837890627	2.983361005783081	1.0	1.0	1626896275.6728	False		False	7.0	0.0	132.0
06	ses-014	3	images_fmri/chalkboard/chalkboard_04s.jpg	seen	1576	132	4	None	304.0	4427.0	4.0	seen-within	2	2	11.94	2.98	False	False	11.929771900177002	14.912612915039062	[['x', 13.079678058624268]]	2.0	seen	False	True	1.139678058624268	2.9828410148620605	1.0	2.0	1626896280.1399	False		False	0.0	291.7686998844147	43.0
06	ses-014	4	images_fmri/hay/hay_04s.jpg	seen	3676	307	4	None	762.0	10912.0	4.0	seen-between-within	3	2	16.41	2.98	True	True	16.396296977996826	19.379308938980103	[['b', 17.536073923110962]]	2.0	seen	False	True	1.1260739231109618	2.9830119609832764	1.0	3.0	1626896284.6064	False		False	0.0	314.1038999557495	48.0
06	ses-014	5	images_fmri/extinguisher/extinguisher_04s.jpg	seen	2800	234	4	None	564.0	8162.0	4.0	seen-between-within	3	2	20.88	2.98	True	True	20.879234075546265	23.84567904472351	[['b', 21.893617868423462]]	2.0	seen	False	True	1.013617868423463	2.966444969177246	1.0	4.0	1626896289.0893	False		False	0.0	166.61069989204407	15.0
06	ses-014	6	images_fmri/roof_rack/roof_rack_04s.jpg	seen	6376	532	4	None	1330.0	18917.0	4.0	seen-within-between	3	2	25.35	2.98	False	False	25.346318006515503	28.328972101211548	[['x', 27.120666980743408]]	2.0	seen	False	True	1.7706669807434068	2.982654094696045	1.0	5.0	1626896293.5564	False		False	7.0	0.0	346.0
06	ses-014	7	images_fmri/cardigan/cardigan_04s.jpg	seen	1420	119	4	None	274.0	4021.0	4.0	seen-within-between	3	2	29.82	2.98	False	True	29.81267189979553	32.795531034469604	[['y', 32.201154947280884]]	-2.0	unseen	True	True	2.3811549472808835	2.9828591346740723	1.0	6.0	1626896298.0228	False		False	7.0	0.0	70.0
06	ses-014	8	images_fmri/thumbtack/thumbtack_04s.jpg	seen	7684	641	4	None	1655.0	23366.0	4.0	seen-within-between	3	2	34.29	2.98	False	True	34.27885603904724	37.26215195655823	[['b', 35.56051802635193]]	2.0	seen	False	True	1.2705180263519296	2.9832959175109863	1.0	7.0	1626896302.4889	False		False	7.0	0.0	229.0
06	ses-014	9	images_fmri/guillotine/guillotine_04s.jpg	unseen	3520	294	4	None	722.0	10357.0	4.0	unseen-within	1	2	38.76	2.98	True	False	38.74575901031494	41.72860789299011	[['a', 41.36186695098877]]	-2.0	unseen	False	True	2.6018669509887715	2.982848882675171	1.0	8.0	1626896306.9558	False		False			
06	ses-014	10	images_fmri/hood/hood_04s.jpg	seen	3808	318	4	None	792.0	11330.0	4.0	seen-between	2	2	43.23	2.98	True	True	43.22864198684693	46.19523191452026	[['b', 44.98776602745056]]	2.0	seen	False	True	1.7577660274505646	2.96658992767334	1.0	9.0	1626896311.4387	False		False	7.0	0.0	72.0
06	ses-014	11	images_fmri/coin/coin_04s.jpg	unseen	1912	160	4	None	386.0	5554.0	4.0	unseen-within	1	2	47.7	2.98	False	False	47.697213888168335	50.68278789520264	[['y', 49.97049593925476]]	-2.0	unseen	False	True	2.270495939254758	2.9855740070343018	1.0	10.0	1626896315.9073	False		False			
06	ses-014	12	images_fmri/sheep/sheep_04n.jpg	unseen	6628	553	4	None	1415.0	20079.0	4.0	unseen-within	1	2	52.17	2.98	True	True	52.164933919906616	55.14718794822693	[['a', 54.493690967559814]]	-2.0	unseen	False	True	2.3236909675598127	2.9822540283203125	1.0	11.0	1626896320.3750	False		False			
06	ses-014	13	images_fmri/thermostat/thermostat_04s.jpg	unseen	7660	639	4	None	1649.0	23285.0	4.0	unseen-between	1	2	56.64	2.98	True	True	56.63036894798279	59.61438703536987	[['y', 59.48343300819397]]	1.0	seen	True	False	2.843433008193969	2.984018087387085	1.0	12.0	1626896324.8405	False		False			
06	ses-014	14	images_fmri/syrup/syrup_04s.jpg	unseen	7444	621	4	None	1606.0	22687.0	4.0	unseen-within	1	2	61.11	2.98	True	False	61.097567081451416	64.08123588562012	[['a', 63.43342208862305]]	-2.0	unseen	False	True	2.3234220886230474	2.983668804168701	1.0	13.0	1626896329.3077	False		False			
06	ses-014	15	images_fmri/brush/brush_04s.jpg	seen	1048	88	4	None	206.0	3107.0	4.0	seen-between-within	3	2	65.58	2.98	True	False	65.58131098747253	68.54650402069092	[['x', 66.66939687728882]]	2.0	seen	False	True	1.08939687728882	2.965193033218384	1.0	14.0	1626896333.7914	False		False	0.0	238.13989996910095	31.0
06	ses-014	16	images_fmri/clipboard/clipboard_04s.jpg	seen	1804	151	4	None	356.0	5151.0	4.0	seen-within	2	2	70.05	2.98	True	True	70.04763007164001	73.03181004524231	[['b', 71.21826410293579]]	2.0	seen	False	True	1.168264102935794	2.984179973602295	1.0	15.0	1626896338.2577	False		False	0.0	399.0585000514984	67.0
06	ses-014	17	images_fmri/sundial/sundial_04s.jpg	unseen	7360	614	4	None	1584.0	22364.0	4.0	unseen-within	1	2	74.52	2.98	False	False	74.5174400806427	77.50007891654968	[['y', 77.54050397872925]]	-2.0	unseen	False	True	3.020503978729252	2.9826388359069824	1.0	16.0	1626896342.7275	False		False			
06	ses-014	18	images_fmri/t-shirt/t-shirt_04s.jpg	seen	7456	622	4	None	1607.0	22699.0	4.0	seen-between	2	2	78.99	2.98	False	True	78.97978901863098	81.96350598335266	[['a', 82.12256693840027]]	1.0	seen	False	False	3.1325669384002737	2.98371696472168	1.0	17.0	1626896347.1899	False		False	7.0	0.0	346.0
06	ses-014	19	images_fmri/gearshift/gearshift_04n.jpg	seen	3220	269	4	None	669.0	9588.0	4.0	seen-between	2	2	83.46	2.98	False	False	83.46473598480225	86.43037700653076	[['y', 85.4661819934845]]	-2.0	unseen	True	True	2.0061819934845038	2.965641021728516	1.0	18.0	1626896351.6748	False		False	7.0	0.0	102.0
06	ses-014	20	images_fmri/goat/goat_04s.jpg	unseen	3304	276	4	None	685.0	9805.0	4.0	unseen-between	1	2	87.92999999999998	2.98	True	True	87.93116092681885	90.9139039516449	[['a', 90.52162504196167]]	-2.0	unseen	False	True	2.5916250419616915	2.98274302482605	1.0	19.0	1626896356.1412	False		False			
06	ses-014	21	images_fmri/pacifier/pacifier_04s.jpg	unseen	5224	436	4	None	1094.0	15576.0	4.0	unseen-within	1	2	92.4	2.98	True	False	92.39711499214172	95.38037705421448	[['a', 94.26654410362244]]	-2.0	unseen	False	True	1.8665441036224308	2.983262062072754	1.0	20.0	1626896360.6072	False		False			
06	ses-014	22	images_fmri/gramophone/gramophone_04s.jpg	seen	3352	280	4	None	700.0	10023.0	4.0	seen-within-between	3	2	96.87	2.98	True	False	96.86261296272278	99.84770393371582	[['x', 97.97356700897217]]	2.0	seen	False	True	1.1035670089721634	2.985090970993042	1.0	21.0	1626896365.0727	False		False	7.0	0.0	159.0
06	ses-014	23	images_fmri/chest1/chest1_04s.jpg	seen	1648	138	4	None	320.0	4644.0	4.0	seen-between	2	2	101.34	2.98	True	True	101.33519101142883	104.31351494789124	[['a', 104.08053708076477]]	-2.0	unseen	True	True	2.740537080764767	2.9783239364624023	1.0	22.0	1626896369.5453	False		False	7.0	0.0	173.0
06	ses-014	24	images_fmri/hood/hood_04s.jpg	seen	3808	318	4	None	792.0	11330.0	4.0	seen-between-within	3	2	105.81	2.98	False	True	105.81430196762084	108.779198884964	[['b', 107.21052098274231]]	2.0	seen	False	True	1.4005209827423073	2.96489691734314	1.0	23.0	1626896374.0244	False		False	0.0	62.585700035095215	14.0
06	ses-014	25	images_fmri/hatbox/hatbox_04s.jpg	seen	3664	306	4	None	759.0	10863.0	4.0	seen-within	2	2	110.28	2.98	True	True	110.28184604644775	113.26324486732484	[['b', 111.63043689727783]]	2.0	seen	False	True	1.350436897277831	2.981398820877075	1.0	24.0	1626896378.4919	False		False	0.0	211.31069993972778	25.0
06	ses-014	26	images_fmri/pumpkin/pumpkin_04s.jpg	seen	6004	501	4	None	1254.0	17856.0	4.0	seen-between	2	2	114.75	2.98	False	False	114.75107502937315	117.72969198226927	[['x', 116.24737191200256]]	2.0	seen	False	True	1.4973719120025637	2.978616952896118	1.0	25.0	1626896382.9612	False		False	7.0	0.0	236.0
06	ses-014	27	images_fmri/coat_rack/coat_rack_04s.jpg	unseen	1852	155	4	None	371.0	5351.0	4.0	unseen-between	1	2	119.22	2.98	True	True	119.2161169052124	122.19637298583984	[['a', 121.30931687355042]]	-2.0	unseen	False	True	2.089316873550416	2.9802560806274414	1.0	26.0	1626896387.4262	False		False			
06	ses-014	28	images_fmri/doll/doll_04s.jpg	seen	2464	206	4	None	500.0	7222.0	4.0	seen-within	2	2	123.69	2.98	True	True	123.67854309082033	126.6617820262909	[['b', 125.09113597869873]]	2.0	seen	False	True	1.4011359786987327	2.983238935470581	1.0	27.0	1626896391.8886	False		False	0.0	479.5075001716614	85.0
06	ses-014	29	images_fmri/antenna/antenna_04n.jpg	seen	160	14	4	None	28.0	383.0	4.0	seen-within-between	3	2	128.16	2.98	True	False	128.16577291488647	131.12866497039795	[['x', 129.7421178817749]]	2.0	seen	False	True	1.5821178817749058	2.9628920555114746	1.0	28.0	1626896396.3759	False		False	7.0	0.0	395.0
06	ses-014	30	images_fmri/banner/banner_04s.jpg	seen	388	33	4	None	71.0	1049.0	4.0	seen-between	2	2	132.63	2.98	False	True	132.63201999664307	135.6130828857422	[['y', 135.111398935318]]	-2.0	unseen	True	True	2.4813989353179977	2.981062889099121	1.0	29.0	1626896400.8421	False		False	7.0	0.0	332.0
06	ses-014	31	images_fmri/closet/closet_04s.jpg	seen	1828	153	4	None	361.0	5217.0	4.0	seen-within-between	3	2	137.1	2.98	True	False	137.09567093849182	140.07901191711426	[['x', 138.90484499931335]]	2.0	seen	False	True	1.80484499931336	2.9833409786224365	1.0	30.0	1626896405.3058	False		False	7.0	0.0	153.0
06	ses-014	32	images_fmri/shovel/shovel_04n.jpg	seen	6700	559	4	None	1433.0	20318.0	4.0	seen-within-between	3	2	141.57	2.98	False	False	141.56282496452332	144.5449938774109	[['x', 144.08030200004578]]	2.0	seen	False	True	2.510302000045783	2.982168912887573	1.0	31.0	1626896409.7729	False		False	7.0	0.0	273.0
06	ses-014	33	images_fmri/scone/scone_04s.jpg	unseen	6520	544	4	None	1381.0	19612.0	4.0	unseen-between	1	2	146.04	2.98	False	False	146.02807188034058	149.0127820968628	[['y', 147.60736203193665]]	-2.0	unseen	False	True	1.5673620319366537	2.984710216522217	1.0	32.0	1626896414.2382	False		False			
06	ses-014	34	images_fmri/banner/banner_04s.jpg	seen	388	33	4	None	71.0	1049.0	4.0	seen-between-within	3	2	150.51	2.98	False	False	150.5142638683319	153.47792387008667	[['x', 152.06001806259155]]	2.0	seen	False	True	1.5500180625915618	2.9636600017547607	1.0	33.0	1626896418.7244	False		False	0.0	17.88230013847351	4.0
06	ses-014	35	images_fmri/anchor/anchor_04s.jpg	unseen	100	9	4	None	22.0	309.0	4.0	unseen-between	1	2	154.98	2.98	True	True	154.9790699481964	157.9624888896942	[['a', 157.76177096366882]]	-2.0	unseen	False	True	2.781770963668833	2.9834189414978027	1.0	34.0	1626896423.1892	False		False			
06	ses-014	36	images_fmri/jar/jar_04s.jpg	unseen	3988	333	4	None	841.0	12023.0	4.0	unseen-within	1	2	159.45	2.98	True	True	159.44666194915771	162.42912101745603	[['a', 160.8282721042633]]	-2.0	unseen	False	True	1.378272104263317	2.98245906829834	1.0	35.0	1626896427.6567	False		False			
06	ses-014	37	images_fmri/thimble/thimble_04n.jpg	unseen	7672	640	4	None	1650.0	23301.0	4.0	unseen-within	1	2	163.92	2.98	False	False	163.91550302505493	166.89459896087646	[['y', 165.81222200393677]]	-2.0	unseen	False	True	1.89222200393678	2.979095935821533	1.0	36.0	1626896432.1256	False		False			
06	ses-014	38	images_fmri/tweezers/tweezers_04s.jpg	unseen	8080	674	4	None	1740.0	24525.0	4.0	unseen-between	1	2	168.39	2.98	False	False	168.37832903862	171.3615689277649	[['y', 171.01461601257324]]	-2.0	unseen	False	True	2.624616012573256	2.983239889144897	1.0	37.0	1626896436.5884	False		False			
06	ses-014	39	images_fmri/granola/granola_04s.jpg	seen	3376	282	4	None	702.0	10054.0	4.0	seen-within-between	3	2	172.86	2.98	True	True	172.86205101013184	175.82875800132751	[['b', 176.03715109825134]]	2.0	seen	False	True	3.177151098251329	2.9667069911956787	1.0	38.0	1626896441.0721	False		False	7.0	0.0	181.0
06	ses-014	40	images_fmri/football_helmet/football_helmet_04s.jpg	unseen	3064	256	4	None	631.0	9103.0	4.0	unseen-within	1	2	177.32999999999996	2.98	False	True	177.32857298851013	180.3129909038544	[['y', 179.20298194885254]]	-2.0	unseen	False	True	1.8729819488525836	2.9844179153442383	1.0	39.0	1626896445.5387	False		False			
06	ses-014	41	images_fmri/kazoo/kazoo_04s.jpg	seen	4084	341	4	None	865.0	12364.0	4.0	seen-within	2	2	181.8	2.98	True	False	181.7940349578857	184.77738308906555	[['x', 182.86074090003967]]	2.0	seen	False	True	1.0607409000396617	2.9833481311798096	1.0	40.0	1626896450.0041	False		False	0.0	363.28600001335144	59.0
06	ses-014	42	images_fmri/cranberry/cranberry_04n.jpg	seen	2116	177	4	None	431.0	6221.0	4.0	seen-within-between	3	2	186.27	2.98	True	False	186.2652440071106	189.2449378967285	[['x', 188.72575902938843]]	2.0	seen	False	True	2.455759029388417	2.97969388961792	1.0	41.0	1626896454.4753	False		False	7.0	0.0	277.0
06	ses-014	43	images_fmri/punch1/punch1_04s.jpg	unseen	6016	502	4	None	1255.0	17877.0	4.0	unseen-within	1	2	190.74	2.98	False	True	190.7278928756714	193.71589303016663	[['x', 193.7590069770813]]	-1.0	unseen	False	False	3.0190069770812897	2.9880001544952397	1.0	42.0	1626896458.9380	False		False			
06	ses-014	44	images_fmri/thimble/thimble_04n.jpg	seen	7672	640	4	None	1650.0	23301.0	4.0	seen-within	2	2	195.21	2.98	False	False	195.21139001846316	198.1810848712921	[['x', 196.24705505371094]]	2.0	seen	False	True	1.0370550537109295	2.9696948528289795	1.0	43.0	1626896463.4215	False		False	0.0	31.295899868011475	7.0
06	ses-014	45	images_fmri/ashtray/ashtray_04s.jpg	seen	220	19	4	None	42.0	581.0	4.0	seen-between	2	2	199.68	2.98	True	True	199.68076300621036	202.66098594665527	[['b', 201.54468297958374]]	2.0	seen	False	True	1.8646829795837332	2.9802229404449463	1.0	44.0	1626896467.8909	False		False	7.0	0.0	225.0
06	ses-014	46	images_fmri/telescope/telescope_04s.jpg	seen	7600	634	4	None	1641.0	23166.0	4.0	seen-between	2	2	204.15	2.98	False	True	204.1473970413208	207.1268439292908	[['y', 206.4926300048828]]	-2.0	unseen	True	True	2.342630004882807	2.9794468879699707	1.0	45.0	1626896472.3575	False		False	7.0	0.0	230.0
06	ses-014	47	images_fmri/pacifier/pacifier_04s.jpg	seen	5224	436	4	None	1094.0	15576.0	4.0	seen-within	2	2	208.62	2.98	False	True	208.60999703407288	211.59333992004397	[['b', 209.59187602996826]]	2.0	seen	False	True	0.9718760299682572	2.9833428859710693	1.0	46.0	1626896476.8201	False		False	0.0	116.21290016174316	26.0
06	ses-014	48	images_fmri/praying_mantis/praying_mantis_04s.jpg	seen	5932	495	4	None	1239.0	17618.0	4.0	seen-between	2	2	213.09	2.98	False	True	213.0960419178009	216.05976796150208	[['b', 214.90843105316162]]	2.0	seen	False	True	1.8184310531616177	2.963726043701172	1.0	47.0	1626896481.3061	False		False	7.0	0.0	127.0
06	ses-014	49	images_fmri/mailbox/mailbox_04s.jpg	seen	4552	380	4	None	961.0	13689.0	4.0	seen-between	2	2	217.56	2.98	False	False	217.56021809577945	220.54318404197693	[['a', 220.2077739238739]]	1.0	seen	False	False	2.647773923873899	2.9829659461975098	1.0	48.0	1626896485.7703	False		False	7.0	0.0	113.0
06	ses-014	50	images_fmri/cymbal/cymbal_04s.jpg	unseen	2332	195	4	None	469.0	6794.0	4.0	unseen-within	1	2	222.03	2.98	False	False	222.02612709999084	225.01087307929996	[['y', 223.92976808547974]]	-2.0	unseen	False	True	1.8997680854797352	2.984745979309082	1.0	49.0	1626896490.2362	False		False			
06	ses-014	51	images_fmri/battery/battery_04n.jpg	seen	448	38	4	None	98.0	1472.0	4.0	seen-within-between	3	2	226.5	2.98	True	True	226.49858593940732	229.47747492790225	[['b', 229.04670906066895]]	2.0	seen	False	True	2.5467090606689453	2.978888988494873	1.0	50.0	1626896494.7087	False		False	7.0	0.0	385.0
06	ses-014	52	images_fmri/chest1/chest1_04s.jpg	seen	1648	138	4	None	320.0	4644.0	4.0	seen-between-within	3	2	230.97	2.98	True	False	230.95947909355164	233.94374990463257	[['x', 232.00028705596924]]	2.0	seen	False	True	1.0302870559692394	2.9842708110809326	1.0	51.0	1626896499.1696	False		False	0.0	129.62430000305176	29.0
06	ses-014	53	images_fmri/cymbal/cymbal_04s.jpg	seen	2332	195	4	None	469.0	6794.0	4.0	seen-within	2	2	235.44	2.98	False	False	235.4488558769226	238.40935897827148	[['x', 236.8353979587555]]	2.0	seen	False	True	1.3953979587554954	2.960503101348877	1.0	52.0	1626896503.6589	False		False	0.0	13.422699928283691	3.0
06	ses-014	54	images_fmri/refrigerator/refrigerator_04s.jpg	seen	6208	518	4	None	1301.0	18520.0	4.0	seen-between	2	2	239.91	2.98	False	False	239.91293597221372	242.8964960575104	[['a', 242.94399309158325]]	1.0	seen	False	False	3.033993091583256	2.983560085296631	1.0	53.0	1626896508.1230	False		False	7.0	0.0	450.0
06	ses-014	55	images_fmri/mailbox/mailbox_04s.jpg	seen	4552	380	4	None	961.0	13689.0	4.0	seen-between-within	3	2	244.38	2.98	True	False	244.3758020401001	247.3601369857788	[['x', 245.2052879333496]]	2.0	seen	False	True	0.8252879333496139	2.984334945678711	1.0	54.0	1626896512.5859	False		False	0.0	26.815600156784058	6.0
06	ses-014	56	images_fmri/backpack/backpack_04s.jpg	seen	280	24	4	None	50.0	712.0	4.0	seen-within-between	3	2	248.85	2.98	False	True	248.84781098365784	251.8262310028076	[['b', 250.7805368900299]]	2.0	seen	False	True	1.930536890029913	2.9784200191497803	1.0	55.0	1626896517.0579	False		False	7.0	0.0	420.0
06	ses-014	57	images_fmri/refrigerator/refrigerator_04s.jpg	seen	6208	518	4	None	1301.0	18520.0	4.0	seen-between-within	3	2	253.32	2.98	False	True	253.3129749298096	256.29216504096985	[['b', 254.44158697128296]]	2.0	seen	False	True	1.1215869712829658	2.9791901111602783	1.0	56.0	1626896521.5231	False		False	0.0	13.400099992752075	3.0
06	ses-014	58	images_fmri/bread/bread_04s.jpg	seen	976	82	4	None	195.0	2947.0	4.0	seen-between	2	2	257.79	2.98	True	False	257.7930679321289	260.7641949653625	[['a', 260.84287309646606]]	-2.0	unseen	True	True	3.052873096466044	2.9711270332336426	1.0	57.0	1626896526.0032	False		False	7.0	0.0	176.0
06	ses-014	59	images_fmri/cauliflower/cauliflower_04s.jpg	unseen	1504	126	4	None	289.0	4222.0	4.0	unseen-between	1	2	262.26	2.98	False	True	262.2587139606476	265.24285793304443	[['y', 263.6742720603943], ['y', 264.74550890922546]]	-2.0	unseen	False	True	1.4142720603942962	2.9841439723968506	1.0	58.0	1626896530.4688	False		False			
06	ses-014	60	images_fmri/tiramisu/tiramisu_04s.jpg	unseen	7732	645	4	None	1664.0	23483.0	4.0	unseen-between	1	2	266.73	2.98	True	False	266.72610998153687	269.7103068828583	[['a', 268.2702178955078]]	-2.0	unseen	False	True	1.5402178955077943	2.984196901321411	1.0	59.0	1626896534.9362	False		False			
