subject	session	TrialNumber	image_path	condition	image_nr	category_nr	exemplar_nr	test_image_nr	things_category_nr	things_image_nr	things_exemplar_nr	subcondition	repetition	run	onset	duration	response_mapping_flip_h	response_mapping_flip_v	onset_flip	offset_flip	keypresses	response	response_txt	error	response_confidence	response_time	duration_flip	ran	order	session_trial_time	atypical	atypical_log	exclude_session	delay_days	delay_seconds	trials_since_lastrep
06	ses-007	1	images_fmri/clarinet/clarinet_03s.jpg	unseen	1779	149	3	None	351.0	5077.0	3.0	unseen-within	1	5	3.0	2.98	True	True	2.9830751419067383	5.966181993484497	[['y', 5.3518970012664795]]	1.0	seen	True	False	2.3518970012664795	2.983106851577759	1.0	0.0		False		False			
06	ses-007	2	images_fmri/shrimp/shrimp_03s.jpg	seen	6747	563	3	None	1439.0	20403.0	3.0	seen-within	2	5	7.47	2.98	True	True	7.462599992752075	10.432712078094482	[['b', 8.729127168655396]]	2.0	seen	False	True	1.2591271686553958	2.9701120853424072	1.0	1.0		False		False	0.0		181.0
06	ses-007	3	images_fmri/polaroid/polaroid_05s.jpg	seen	5789	483	5	None	1213.0	17245.0	5.0	seen-between	2	5	11.94	2.98	True	False	11.932812213897703	14.912636995315552	[['x', 14.286027193069458]]	2.0	seen	False	True	2.3460271930694585	2.9798247814178467	1.0	2.0		False		False	7.0	0.0	451.0
06	ses-007	4	images_fmri/blazer/blazer_05s.jpg	seen	713	60	5	None	138.0	2104.0	5.0	seen-between	2	5	16.41	2.98	False	True	16.39576506614685	19.379067182540894	[['a', 18.47394609451294]]	1.0	seen	False	False	2.0639460945129398	2.983302116394043	1.0	3.0		False		False	7.0	0.0	323.0
06	ses-007	5	images_fmri/meatball/meatball_03s.jpg	unseen	4731	395	3	None	990.0	14098.0	3.0	unseen-within	1	5	20.88	2.98	True	False	20.863295078277588	23.84597611427307	[['y', 22.76893901824951]]	1.0	seen	True	False	1.8889390182495127	2.9826810359954834	1.0	4.0		False		False			
06	ses-007	6	images_fmri/waffle_iron/waffle_iron_03s.jpg	unseen	8235	687	3	None	1772.0	24981.0	3.0	unseen-between	1	5	25.35	2.98	True	False	25.334026098251343	28.311973094940186	[['x', 26.528724193572998]]	2.0	seen	True	True	1.1787241935729966	2.9779469966888428	1.0	5.0		False		False			
06	ses-007	7	images_fmri/gauze/gauze_03s.jpg	unseen	3207	268	3	None	665.0	9537.0	3.0	unseen-within	1	5	29.82	2.98	True	False	29.815608024597168	32.77857518196106	[['x', 31.892881155014038]]	2.0	seen	True	True	2.072881155014038	2.962967157363892	1.0	6.0		False		False			
06	ses-007	8	images_fmri/stopwatch/stopwatch_05s.jpg	seen	7253	605	5	None	1563.0	22074.0	5.0	seen-within-between	3	5	34.29	2.98	True	False	34.278635025024414	37.26227402687073	[['x', 36.579684019088745]]	2.0	seen	False	True	2.289684019088746	2.983639001846313	1.0	7.0		False		False	7.0	0.0	331.0
06	ses-007	9	images_fmri/sloth/sloth_03s.jpg	unseen	6855	572	3	None	1472.0	20853.0	3.0	unseen-between	1	5	38.76	2.98	True	False	38.744996070861816	41.72827410697937	[['a', 40.7070631980896]]	-2.0	unseen	False	True	1.9470631980896016	2.9832780361175537	1.0	8.0		False		False			
06	ses-007	10	images_fmri/helicopter/helicopter_03s.jpg	unseen	3735	312	3	None	776.0	11101.0	3.0	unseen-between	1	5	43.23	2.98	True	True	43.21161317825317	46.19519305229187	[['a', 45.16293215751648]]	-2.0	unseen	False	True	1.9329321575164824	2.9835798740386963	1.0	9.0		False		False			
06	ses-007	11	images_fmri/ping-pong_table/ping-pong_table_03s.jpg	seen	5631	470	3	None	1185.0	16855.0	3.0	seen-within	2	5	47.7	2.98	True	True	47.68292999267578	50.66236400604248	[['b', 49.19955611228943]]	2.0	seen	False	True	1.499556112289426	2.979434013366699	1.0	10.0		False		False	0.0		236.0
06	ses-007	12	images_fmri/meatball/meatball_03s.jpg	seen	4731	395	3	None	990.0	14098.0	3.0	seen-within	2	5	52.17	2.98	True	False	52.16476607322693	55.13163113594055	[['x', 53.18398118019104]]	2.0	seen	False	True	1.0139811801910383	2.966865062713623	1.0	11.0		False		False	0.0		7.0
06	ses-007	13	images_fmri/hairbrush/hairbrush_05s.jpg	seen	3557	297	5	None	735.0	10540.0	5.0	seen-within-between	3	5	56.64	2.98	False	False	56.62890005111694	59.61155915260315	[['x', 57.93450307846069]]	2.0	seen	False	True	1.2945030784606928	2.982659101486206	1.0	12.0		False		False	7.0	0.0	255.0
06	ses-007	14	images_fmri/scanner/scanner_05s.jpg	seen	6485	541	5	None	1376.0	19546.0	5.0	seen-within-between	3	5	61.11	2.98	True	False	61.09986901283264	64.0781991481781	[['a', 63.49554920196533]]	-2.0	unseen	True	True	2.3855492019653326	2.978330135345459	1.0	13.0		False		False	7.0	0.0	463.0
06	ses-007	15	images_fmri/needle/needle_03s.jpg	unseen	5043	421	3	None	1056.0	15031.0	3.0	unseen-between	1	5	65.58	2.98	True	True	65.56270098686218	68.54455208778381	[['b', 67.47662401199341]]	2.0	seen	True	True	1.89662401199341	2.981851100921631	1.0	14.0		False		False			
06	ses-007	16	images_fmri/gauze/gauze_03s.jpg	seen	3207	268	3	None	665.0	9537.0	3.0	seen-within	2	5	70.05	2.98	False	True	70.0283510684967	73.01448321342468	[['b', 70.94161105155945]]	2.0	seen	False	True	0.8916110515594511	2.9861321449279785	1.0	15.0		False		False	0.0		9.0
06	ses-007	17	images_fmri/toaster/toaster_03s.jpg	unseen	7755	647	3	None	1667.0	23528.0	3.0	unseen-within	1	5	74.52	2.98	True	True	74.51195120811462	77.49499106407166	[['y', 77.24439907073975]]	1.0	seen	True	False	2.72439907073975	2.9830398559570312	1.0	16.0		False		False			
06	ses-007	18	images_fmri/dish/dish_05s.jpg	seen	2417	202	5	None	490.0	7084.0	5.0	seen-between	2	5	78.99	2.98	False	True	78.97744607925415	81.9608461856842	[['b', 80.57964515686035]]	2.0	seen	False	True	1.589645156860357	2.9834001064300537	1.0	17.0		False		False	7.0	0.0	369.0
06	ses-007	19	images_fmri/toaster/toaster_03s.jpg	seen	7755	647	3	None	1667.0	23528.0	3.0	seen-within	2	5	83.46	2.98	False	False	83.44963002204895	86.42750811576843	[['x', 84.50261116027832]]	2.0	seen	False	True	1.0426111602783266	2.9778780937194824	1.0	18.0		False		False	0.0		2.0
06	ses-007	20	images_fmri/pumpkin/pumpkin_03s.jpg	unseen	6003	501	3	None	1254.0	17855.0	3.0	unseen-within	1	5	87.92999999999998	2.98	False	False	87.91485214233398	90.8974380493164	[['x', 89.60073399543762]]	2.0	seen	True	True	1.6707339954376437	2.982585906982422	1.0	19.0		False		False			
06	ses-007	21	images_fmri/blazer/blazer_05s.jpg	seen	713	60	5	None	138.0	2104.0	5.0	seen-between-within	3	5	92.4	2.98	False	True	92.3824942111969	95.36411309242249	[['b', 93.41050219535828]]	2.0	seen	False	True	1.010502195358271	2.981618881225586	1.0	20.0		False		False	0.0		17.0
06	ses-007	22	images_fmri/bagel/bagel_03s.jpg	unseen	303	26	3	None	56.0	814.0	3.0	unseen-between	1	5	96.87	2.98	False	True	96.86613011360168	99.83000111579896	[['b', 99.03826713562012]]	2.0	seen	True	True	2.1682671356201126	2.9638710021972656	1.0	21.0		False		False			
06	ses-007	23	images_fmri/skunk/skunk_03s.jpg	unseen	6819	569	3	None	1460.0	20696.0	3.0	unseen-between	1	5	101.34	2.98	False	False	101.32716012001038	104.31058406829834	[['y', 103.43941307067871]]	-2.0	unseen	False	True	2.0994130706787075	2.983423948287964	1.0	22.0		False		False			
06	ses-007	24	images_fmri/brush/brush_03s.jpg	seen	1047	88	3	None	206.0	3106.0	3.0	seen-within	2	5	105.81	2.98	True	False	105.79353499412537	108.7771430015564	[['x', 108.34243607521057]]	2.0	seen	False	True	2.532436075210569	2.9836080074310303	1.0	23.0		False		False	0.0		173.0
06	ses-007	25	images_fmri/stalagmite/stalagmite_05s.jpg	seen	7157	597	5	None	1535.0	21694.0	5.0	seen-between	2	5	110.28	2.98	True	False	110.26272010803224	113.24382305145264	[['x', 111.67117500305176]]	2.0	seen	False	True	1.391175003051757	2.98110294342041	1.0	24.0		False		False	7.0	0.0	322.0
06	ses-007	26	images_fmri/peach/peach_03s.jpg	unseen	5403	451	3	None	1130.0	16090.0	3.0	unseen-within	1	5	114.75	2.98	True	True	114.7306501865387	117.71073317527772	[['a', 117.07658505439758]]	-2.0	unseen	False	True	2.326585054397583	2.9800829887390137	1.0	25.0		False		False			
06	ses-007	27	images_fmri/pickle/pickle_05s.jpg	seen	5549	463	5	None	1168.0	16615.0	5.0	seen-within-between	3	5	119.22	2.98	False	False	119.2097430229187	122.17913508415222	[['x', 120.51866722106934]]	2.0	seen	False	True	1.298667221069337	2.9693920612335205	1.0	26.0		False		False	7.0	0.0	388.0
06	ses-007	28	images_fmri/snowboard/snowboard_05s.jpg	seen	6917	577	5	None	1482.0	20994.0	5.0	seen-within-between	3	5	123.69	2.98	False	False	123.68159103393556	126.65960216522215	[['x', 125.7590901851654]]	2.0	seen	False	True	2.0690901851654075	2.978011131286621	1.0	27.0		False		False	7.0	0.0	337.0
06	ses-007	29	images_fmri/grape/grape_05s.jpg	seen	3389	283	5	None	703.0	10072.0	5.0	seen-between-within	3	5	128.16	2.98	False	False	128.1458020210266	131.12608814239502	[['x', 129.52224707603455]]	2.0	seen	False	True	1.3622470760345493	2.980286121368408	1.0	28.0		False		False	0.0		51.0
06	ses-007	30	images_fmri/barrel/barrel_05s.jpg	seen	413	35	5	None	77.0	1140.0	5.0	seen-within-between	3	5	132.63	2.98	False	True	132.61496710777283	135.59268808364868	[['b', 133.6784200668335]]	2.0	seen	False	True	1.0484200668335006	2.9777209758758545	1.0	29.0		False		False	7.0	0.0	521.0
06	ses-007	31	images_fmri/cashew/cashew_03s.jpg	unseen	1455	122	3	None	282.0	4125.0	3.0	unseen-between	1	5	137.1	2.98	False	True	137.08139419555664	140.0638771057129	[['b', 138.88309621810913]]	2.0	seen	True	True	1.7830962181091363	2.98248291015625	1.0	30.0		False		False			
06	ses-007	32	images_fmri/dish/dish_05s.jpg	seen	2417	202	5	None	490.0	7084.0	5.0	seen-between-within	3	5	141.57	2.98	True	True	141.5637321472168	144.5314531326294							2.9677209854125977	1.0	31.0		False		False	0.0		14.0
06	ses-007	33	images_fmri/bow2/bow2_05s.jpg	seen	881	74	5	None	176.0	2682.0	5.0	seen-between	2	5	146.04	2.98	False	True	146.030011177063	149.00973200798035	[['b', 148.09999108314514]]	2.0	seen	False	True	2.0599910831451496	2.9797208309173584	1.0	32.0		False		False	7.0	0.0	595.0
06	ses-007	34	images_fmri/drain/drain_03s.jpg	unseen	2571	215	3	None	516.0	7486.0	3.0	unseen-within	1	5	150.51	2.98	False	True	150.49554705619812	153.47591519355774	[['y', 153.09530210494995]]	-2.0	unseen	False	True	2.5853021049499603	2.980368137359619	1.0	33.0		False		False			
06	ses-007	35	images_fmri/pistachio/pistachio_03s.jpg	seen	5655	472	3	None	1189.0	16907.0	3.0	seen-within	2	5	154.98	2.98	False	True	154.97596907615662	157.945139169693	[['b', 156.46431016921997]]	2.0	seen	False	True	1.484310169219981	2.969170093536377	1.0	34.0		False		False	0.0		52.0
06	ses-007	36	images_fmri/beet/beet_05s.jpg	seen	557	47	5	None	115.0	1755.0	5.0	seen-between-within	3	5	159.45	2.98	False	False	159.44643020629883	162.41300201416016	[['x', 160.89441204071045]]	2.0	seen	False	True	1.4444120407104606	2.966571807861328	1.0	35.0		False		False	0.0		129.0
06	ses-007	37	images_fmri/coat/coat_05s.jpg	seen	1841	154	5	None	370.0	5340.0	5.0	seen-between	2	5	163.92	2.98	False	True	163.91163206100464	166.89235711097717	[['b', 165.22410106658936]]	2.0	seen	False	True	1.304101066589368	2.980725049972534	1.0	36.0		False		False	7.0	0.0	385.0
06	ses-007	38	images_fmri/bison/bison_03n.jpg	unseen	675	57	3	None	135.0	2065.0	3.0	unseen-within	1	5	168.39	2.98	False	False	168.377699136734	171.3585021495819	[['y', 170.4089012145996]]	-2.0	unseen	False	True	2.018901214599623	2.9808030128479004	1.0	37.0		False		False			
06	ses-007	39	images_fmri/refrigerator/refrigerator_03s.jpg	seen	6207	518	3	None	1301.0	18519.0	3.0	seen-within	2	5	172.86	2.98	False	False	172.84173798561096	175.82947206497192	[['x', 173.60914611816406]]	2.0	seen	False	True	0.7491461181640489	2.987734079360962	1.0	38.0		False		False	0.0		39.0
06	ses-007	40	images_fmri/jellyfish/jellyfish_05s.jpg	seen	4013	335	5	None	846.0	12095.0	5.0	seen-between-within	3	5	177.32999999999996	2.98	True	False	177.31257009506226	180.2958030700684	[['x', 178.32801413536072]]	2.0	seen	False	True	0.998014135360762	2.9832329750061035	1.0	39.0		False		False	0.0		85.0
06	ses-007	41	images_fmri/cotton_candy/cotton_candy_05s.jpg	seen	2069	173	5	None	422.0	6068.0	5.0	seen-within-between	3	5	181.8	2.98	False	True	181.7937471866608	184.77486419677732	[['b', 183.13308906555176]]	2.0	seen	False	True	1.3330890655517464	2.981117010116577	1.0	40.0		False		False	7.0	0.0	287.0
06	ses-007	42	images_fmri/wheelbarrow/wheelbarrow_03s.jpg	unseen	8427	703	3	None	1808.0	25466.0	3.0	unseen-between	1	5	186.27	2.98	True	False	186.2624900341034	189.2416491508484	[['y', 188.70987820625305]]	1.0	seen	True	False	2.439878206253041	2.979159116744995	1.0	41.0		False		False			
06	ses-007	43	images_fmri/polaroid/polaroid_05s.jpg	seen	5789	483	5	None	1213.0	17245.0	5.0	seen-between-within	3	5	190.74	2.98	True	False	190.72749400138852	193.7144410610199	[['x', 191.62379121780396]]	2.0	seen	False	True	0.883791217803946	2.986947059631348	1.0	42.0		False		False	0.0		40.0
06	ses-007	44	images_fmri/rat/rat_05s.jpg	seen	6149	513	5	None	1286.0	18305.0	5.0	seen-between	2	5	195.21	2.98	False	True	195.19248700141907	198.1784980297089	[['b', 197.23967099189758]]	2.0	seen	False	True	2.029670991897575	2.986011028289795	1.0	43.0		False		False	7.0	0.0	545.0
06	ses-007	45	images_fmri/envelope/envelope_03s.jpg	unseen	2787	233	3	None	559.0	8097.0	3.0	unseen-between	1	5	199.68	2.98	False	False	199.65863513946533	202.6444971561432	[['y', 201.36800909042358]]	-2.0	unseen	False	True	1.6880090904235772	2.9858620166778564	1.0	44.0		False		False			
06	ses-007	46	images_fmri/elbow/elbow_05s.jpg	seen	2753	230	5	None	553.0	8021.0	5.0	seen-between	2	5	204.15	2.98	True	False	204.1470592021942	207.1087291240692	[['x', 206.18373703956604]]	2.0	seen	False	True	2.0337370395660344	2.961669921875	1.0	45.0		False		False	7.0	0.0	353.0
06	ses-007	47	images_fmri/coffee_pot/coffee_pot_05s.jpg	seen	1889	158	5	None	381.0	5488.0	5.0	seen-between-within	3	5	208.62	2.98	False	True	208.61132621765137	211.5912470817566	[['b', 209.8825500011444]]	2.0	seen	False	True	1.2625500011444046	2.9799208641052246	1.0	46.0		False		False	0.0		267.0
06	ses-007	48	images_fmri/otter/otter_03s.jpg	seen	5187	433	3	None	1086.0	15455.0	3.0	seen-within	2	5	213.09	2.98	True	True	213.0796542167664	216.06276607513428	[['b', 213.9900381565094]]	2.0	seen	False	True	0.900038156509396	2.98311185836792	1.0	47.0		False		False	0.0		117.0
06	ses-007	49	images_fmri/saltshaker/saltshaker_05s.jpg	seen	6425	536	5	None	1351.0	19209.0	5.0	seen-within-between	3	5	217.56	2.98	True	True	217.545312166214	220.5273230075836	[['b', 218.56748604774475]]	2.0	seen	False	True	1.0074860477447487	2.982010841369629	1.0	48.0		False		False	7.0	0.0	626.0
06	ses-007	50	images_fmri/shovel/shovel_03n.jpg	unseen	6699	559	3	None	1433.0	20317.0	3.0	unseen-between	1	5	222.03	2.98	False	True	222.0124151706696	224.9933121204376	[['b', 223.69876718521118]]	2.0	seen	True	True	1.6687671852111805	2.9808969497680664	1.0	49.0		False		False			
06	ses-007	51	images_fmri/fudge/fudge_05s.jpg	seen	3137	262	5	None	648.0	9325.0	5.0	seen-between-within	3	5	226.5	2.98	True	True	226.4942271709442	229.4623970985413	[['b', 227.63859915733337]]	2.0	seen	False	True	1.138599157333374	2.968169927597046	1.0	50.0		False		False	0.0		81.0
06	ses-007	52	images_fmri/elbow/elbow_05s.jpg	seen	2753	230	5	None	553.0	8021.0	5.0	seen-between-within	3	5	230.97	2.98	False	True	230.95997405052185	233.94051313400269	[['b', 232.1685950756073]]	2.0	seen	False	True	1.198595075607301	2.980539083480835	1.0	51.0		False		False	0.0		6.0
06	ses-007	53	images_fmri/drain/drain_03s.jpg	seen	2571	215	3	None	516.0	7486.0	3.0	seen-within	2	5	235.44	2.98	True	False	235.42464518547055	238.4073491096497	[['x', 237.06670022010803]]	2.0	seen	False	True	1.6267002201080345	2.982703924179077	1.0	52.0		False		False	0.0		19.0
06	ses-007	54	images_fmri/wand/wand_03s.jpg	seen	8319	694	3	None	1781.0	25106.0	3.0	seen-within	2	5	239.91	2.98	True	False	239.8909170627594	242.87354016304016	[['x', 240.78242206573486]]	2.0	seen	False	True	0.8724220657348667	2.9826231002807617	1.0	53.0		False		False	0.0		96.0
06	ses-007	55	images_fmri/stalagmite/stalagmite_05s.jpg	seen	7157	597	5	None	1535.0	21694.0	5.0	seen-between-within	3	5	244.38	2.98	False	True	244.3588252067566	247.3455011844635	[['b', 245.34862518310547]]	2.0	seen	False	True	0.9686251831054732	2.986675977706909	1.0	54.0		False		False	0.0		30.0
06	ses-007	56	images_fmri/rat/rat_05s.jpg	seen	6149	513	5	None	1286.0	18305.0	5.0	seen-between-within	3	5	248.85	2.98	True	False	248.8433961868286	251.81028008461	[['x', 250.17444014549255]]	2.0	seen	False	True	1.3244401454925594	2.966883897781372	1.0	55.0		False		False	0.0		12.0
06	ses-007	57	images_fmri/coat/coat_05s.jpg	seen	1841	154	5	None	370.0	5340.0	5.0	seen-between-within	3	5	253.32	2.98	False	True	253.31116700172424	256.2942681312561	[['b', 254.2833571434021]]	2.0	seen	False	True	0.9633571434021064	2.9831011295318604	1.0	56.0		False		False	0.0		20.0
06	ses-007	58	images_fmri/pot/pot_03s.jpg	unseen	5883	491	3	None	1231.0	17504.0	3.0	unseen-between	1	5	257.79	2.98	False	True	257.778281211853	260.7564330101013	[['y', 259.63374304771423]]	-2.0	unseen	False	True	1.843743047714213	2.978151798248291	1.0	57.0		False		False			
06	ses-007	59	images_fmri/penguin/penguin_03s.jpg	unseen	5487	458	3	None	1146.0	16296.0	3.0	unseen-between	1	5	262.26	2.98	True	False	262.2441930770874	265.2272891998291	[['x', 263.29855704307556]]	2.0	seen	True	True	1.0385570430755706	2.983096122741699	1.0	58.0		False		False			
06	ses-007	60	images_fmri/t-shirt/t-shirt_03s.jpg	seen	7455	622	3	None	1607.0	22698.0	3.0	seen-within	2	5	266.73	2.98	True	False	266.7095401287079	269.69468998909	[['x', 267.7925171852112]]	2.0	seen	False	True	1.0625171852111637	2.98514986038208	1.0	59.0		False		False	0.0		169.0
