subject	session	TrialNumber	image_path	condition	image_nr	category_nr	exemplar_nr	test_image_nr	things_category_nr	things_image_nr	things_exemplar_nr	subcondition	repetition	run	onset	duration	response_mapping_flip_h	response_mapping_flip_v	onset_flip	offset_flip	keypresses	response	response_txt	error	response_confidence	response_time	duration_flip	ran	order	session_trial_time	atypical	atypical_log	exclude_session	delay_days	delay_seconds	trials_since_lastrep
01	ses-032	1	images_fmri/umbrella/umbrella_01b.jpg	unseen	8113	677	1	None	1744.0	24577.0	1.0	unseen-within	1	3	3.0	2.98	True	False	3.002403410151601	5.968556047882885	[['b', 6.002397846896201]]	-1.0	unseen	False	False	3.0023978468962014	2.966152637731284	1.0	0.0	3796158.190175873	False		False			
01	ses-032	2	images_fmri/polaroid/polaroid_01b.jpg	unseen	5785	483	1	None	1213.0	17241.0	1.0	unseen-between	1	3	7.47	2.98	True	True	7.466622659005225	10.449794294312596	[['x', 9.319561915006489]]	-1.0	unseen	False	False	1.8495619150064888	2.983171635307372	1.0	1.0	3796162.6601758734	False		False			
01	ses-032	3	images_fmri/table/table_01b.jpg	seen	7477	624	1	None	1609.0	22725.0	1.0	seen-within-between	3	3	11.94	2.98	False	False	11.934380305930972	14.916600997094063	[['b', 14.777260307222605]]	-1.0	unseen	True	False	2.837260307222605	2.982220691163093	1.0	2.0	3796167.130175873	False		False	7.0	0.0	219.0
01	ses-032	4	images_fmri/spider/spider_01b.jpg	seen	7057	589	1	None	1514.0	21405.0	1.0	seen-within	2	3	16.41	2.98	False	True	16.39960396103561	19.388715791050345							2.9891118300147355	1.0	3.0	3796171.6001758734	False		False	0.0	527.8482786002569	20.0
01	ses-032	5	images_fmri/bassinet/bassinet_01b.jpg	seen	433	37	1	None	86.0	1267.0	1.0	seen-between	2	3	20.88	2.98	True	False	20.872195499017835	23.85060072131455	[['b', 23.48805046500638]]	-1.0	unseen	True	False	2.6080504650063823	2.978405222296715	1.0	4.0	3796176.070175873	False		False	7.0	0.0	386.0
01	ses-032	6	images_fmri/phone/phone_01b.jpg	seen	5521	461	1	None	1162.0	16532.0	1.0	seen-between	2	3	25.35	2.98	True	False	25.350543110165745	28.31716995313764	[['b', 26.70933618908748]]	-1.0	unseen	True	False	1.3593361890874789	2.966626842971891	1.0	5.0	3796180.5401758733	False		False	7.0	0.0	308.0
01	ses-032	7	images_fmri/parachute/parachute_01b.jpg	unseen	5353	447	1	None	1119.0	15908.0	1.0	unseen-within	1	3	29.82	2.98	True	False	29.821764389052987	32.800843321252614	[['b', 31.840953939128667]]	-1.0	unseen	False	False	2.020953939128667	2.979078932199627	1.0	6.0	3796185.010175873	False		False			
01	ses-032	8	images_fmri/tamale/tamale_01b.jpg	seen	7549	630	1	None	1619.0	22855.0	1.0	seen-between	2	3	34.29	2.98	False	True	34.28929808130488	37.27234720997512							2.9830491286702454	1.0	7.0	3796189.4801758733	False		False	7.0	0.0	372.0
01	ses-032	9	images_fmri/kettle/kettle_01b.jpg	unseen	4105	343	1	None	869.0	12426.0	1.0	unseen-between	1	3	38.76	2.98	True	False	38.75470618810505	41.73369530914351	[['b', 41.376098323147744]]	-1.0	unseen	False	False	2.616098323147746	2.9789891210384667	1.0	8.0	3796193.950175873	False		False			
01	ses-032	10	images_fmri/anchor/anchor_01b.jpg	seen	97	9	1	None	22.0	306.0	1.0	seen-within-between	3	3	43.23	2.98	False	False	43.216719936113805	46.20073812128976	[['x', 44.573442050255835]]	2.0	seen	False	True	1.3434420502558382	2.9840181851759557	1.0	9.0	3796198.420175873	False		False	7.0	0.0	132.0
01	ses-032	11	images_fmri/key/key_01b.jpg	seen	4117	344	1	None	870.0	12441.0	1.0	seen-between-within	3	3	47.7	2.98	False	False	47.702227517962456	50.67130878707394	[['b', 51.25839568208903]]	-1.0	unseen	True	False	3.558395682089028	2.9690812691114843	1.0	10.0	3796202.8901758734	False		False	0.0	563.6082786000334	28.0
01	ses-032	12	images_fmri/bike/bike_01b.jpg	seen	613	52	1	None	124.0	1886.0	1.0	seen-within	2	3	52.17	2.98	False	True	52.16661677602679	55.15547672705725	[['b', 55.96912859333679]]	2.0	seen	False	True	3.799128593336789	2.988859951030463	1.0	11.0	3796207.360175873	False		False	0.0	1008.7099907998927	94.0
01	ses-032	13	images_fmri/tiara/tiara_01b.jpg	seen	7693	642	1	None	1656.0	23378.0	1.0	seen-within-between	3	3	56.64	2.98	False	True	56.63316782424226	59.61672935821116	[['x', 59.09268041187897]]	-1.0	unseen	True	False	2.4526804118789727	2.983561533968896	1.0	12.0	3796211.8301758734	False		False	7.0	0.0	205.0
01	ses-032	14	images_fmri/boar/boar_01b.jpg	seen	793	67	1	None	152.0	2315.0	1.0	seen-within	2	3	61.11	2.98	False	False	61.10508267721161	64.0876367231831							2.982554045971483	1.0	13.0	3796216.300175873	False		False	0.0	1053.409990800079	104.0
01	ses-032	15	images_fmri/beet/beet_01b.jpg	seen	553	47	1	None	115.0	1751.0	1.0	seen-between-within	3	3	65.58	2.98	True	False	65.5858795652166	68.54955027624965	[['y', 68.42928028013557]]	1.0	seen	False	False	2.8492802801355737	2.9636707110330462	1.0	14.0	3796220.7701758733	False		False	0.0	1102.5799908000045	115.0
01	ses-032	16	images_fmri/carousel/carousel_01b.jpg	unseen	1429	120	1	None	276.0	4047.0	1.0	unseen-within	1	3	70.05	2.98	False	True	70.04943337989971	73.03279059706256	[['x', 71.48699000105262]]	-1.0	unseen	False	False	1.4369900010526209	2.9833572171628475	1.0	15.0	3796225.240175873	False		False			
01	ses-032	17	images_fmri/stopwatch/stopwatch_01b.jpg	seen	7249	605	1	None	1563.0	22070.0	1.0	seen-between	2	3	74.52	2.98	True	False	74.52174351830035	77.49930681614205	[['b', 77.13136406894773]]	-1.0	unseen	True	False	2.6113640689477364	2.977563297841698	1.0	16.0	3796229.7101758732	False		False	7.0	0.0	345.0
01	ses-032	18	images_fmri/chalk/chalk_01b.jpg	seen	1561	131	1	None	303.0	4411.0	1.0	seen-between-within	3	3	78.99	2.98	True	True	78.9826167752035	81.96664725709707	[['b', 80.06737774796784]]	2.0	seen	False	True	1.0773777479678444	2.984030481893569	1.0	17.0	3796234.1801758735	False		False	0.0	661.94827860035	50.0
01	ses-032	19	images_fmri/motorcycle/motorcycle_01b.jpg	seen	4921	411	1	None	1026.0	14617.0	1.0	seen-within-between	3	3	83.46	2.98	True	True	83.45477275922894	86.43254561210051	[['y', 86.39202620927244]]	1.0	seen	False	False	2.9320262092724505	2.977772852871567	1.0	18.0	3796238.650175873	False		False	7.0	0.0	210.0
01	ses-032	20	images_fmri/spinach/spinach_01b.jpg	unseen	7069	590	1	None	1516.0	21432.0	1.0	unseen-between	1	3	87.92999999999998	2.98	False	False	87.93243101006374	90.8992803641595	[['b', 89.24606210412458]]	-1.0	unseen	False	False	1.3160621041245977	2.966849354095757	1.0	19.0	3796243.1201758734	False		False			
01	ses-032	21	images_fmri/icicle/icicle_01b.jpg	seen	3913	327	1	None	825.0	11790.0	1.0	seen-within	2	3	92.4	2.98	False	False	92.4019367992878	95.38264027098194	[['a', 93.98199573112652]]	1.0	seen	False	False	1.5819957311265114	2.9807034716941416	1.0	20.0	3796247.590175873	False		False	0.0	630.6582785998471	43.0
01	ses-032	22	images_fmri/boot/boot_01b.jpg	unseen	853	72	1	None	170.0	2580.0	1.0	unseen-within	1	3	96.87	2.98	False	False	96.86670465115458	99.84884461108597	[['b', 98.47587922913954]]	-1.0	unseen	False	False	1.605879229139532	2.9821399599313736	1.0	21.0	3796252.0601758733	False		False			
01	ses-032	23	images_fmri/boot/boot_01b.jpg	seen	853	72	1	None	170.0	2580.0	1.0	seen-within	2	3	101.34	2.98	True	True	101.3350837272592	104.31712726829574	[['b', 102.27578032808378]]	2.0	seen	False	True	0.93578032808378	2.9820435410365462	1.0	22.0	3796256.530175873	False		False	0.0	4.46999999973923	1.0
01	ses-032	24	images_fmri/garlic/garlic_01b.jpg	unseen	3181	266	1	None	659.0	9463.0	1.0	unseen-within	1	3	105.81	2.98	False	True	105.80018851812927	108.7821341920644	[['x', 107.0109196412377]]	-1.0	unseen	False	False	1.2009196412377037	2.981945673935116	1.0	23.0	3796261.0001758733	False		False			
01	ses-032	25	images_fmri/hedgehog/hedgehog_01b.jpg	unseen	3721	311	1	None	775.0	11084.0	1.0	unseen-between	1	3	110.28	2.98	False	True	110.2848144331947	113.24850301910192	[['x', 111.75704353116453]]	-1.0	unseen	False	False	1.4770435311645258	2.963688585907221	1.0	24.0	3796265.470175873	False		False			
01	ses-032	26	images_fmri/footbath/footbath_01s.jpg	unseen	3073	257	1	None	632.0	9116.0	1.0	unseen-within	1	3	114.75	2.98	False	False	114.75141377421096	117.73163929628208	[['b', 116.1455833222717]]	-1.0	unseen	False	False	1.395583322271705	2.980225522071123	1.0	25.0	3796269.940175873	False		False			
01	ses-032	27	images_fmri/honeycomb/honeycomb_01b.jpg	unseen	3793	317	1	None	790.0	11295.0	1.0	unseen-within	1	3	119.22	2.98	False	True	119.21535369893536	122.19827270926908	[['x', 120.79415070824325]]	-1.0	unseen	False	False	1.574150708243252	2.982919010333717	1.0	26.0	3796274.4101758734	False		False			
01	ses-032	28	images_fmri/blueberry/blueberry_01b.jpg	unseen	769	65	1	None	150.0	2288.0	1.0	unseen-between	1	3	123.69	2.98	True	False	123.68494694912806	126.66976598324254	[['b', 124.64572841720656]]	-1.0	unseen	False	False	0.955728417206558	2.98481903411448	1.0	27.0	3796278.880175873	False		False			
01	ses-032	29	images_fmri/yo-yo/yo-yo_01s.jpg	seen	8605	718	1	None	1848.0	26006.0	1.0	seen-between	2	3	128.16	2.98	False	False	128.15348748490214	131.13161570299417	[['x', 130.04972283216193]]	2.0	seen	False	True	1.8897228321619368	2.9781282180920243	1.0	28.0	3796283.3501758734	False		False	7.0	0.0	277.0
01	ses-032	30	images_fmri/space_shuttle/space_shuttle_01b.jpg	unseen	7009	585	1	None	1502.0	21246.0	1.0	unseen-between	1	3	132.63	2.98	False	False	132.63443218590692	135.59816700592637	[['b', 133.79770134901628]]	-1.0	unseen	False	False	1.1677013490162835	2.9637348200194538	1.0	29.0	3796287.820175873	False		False			
01	ses-032	31	images_fmri/bracelet2/bracelet2_01b.jpg	seen	949	80	1	None	189.0	2860.0	1.0	seen-between	2	3	137.1	2.98	True	False	137.10352838691324	140.0812759040855	[['b', 139.5233676340431]]	-1.0	unseen	True	False	2.423367634043103	2.977747517172247	1.0	30.0	3796292.2901758733	False		False	7.0	0.0	440.0
01	ses-032	32	images_fmri/hammock/hammock_01b.jpg	seen	3601	301	1	None	743.0	10643.0	1.0	seen-between	2	3	141.57	2.98	True	True	141.56949986331165	144.54775270726532	[['x', 143.13629050226882]]	-1.0	unseen	True	False	1.5662905022688278	2.978252843953669	1.0	31.0	3796296.760175873	False		False	7.0	0.0	319.0
01	ses-032	33	images_fmri/sock/sock_01b.jpg	unseen	6937	579	1	None	1490.0	21088.0	1.0	unseen-within	1	3	146.04	2.98	False	True	146.03640476008877	149.01431290293112	[['x', 148.0005168109201]]	-1.0	unseen	False	False	1.9605168109200972	2.9779081428423524	1.0	32.0	3796301.2301758733	False		False			
01	ses-032	34	images_fmri/fireworks/fireworks_01b.jpg	unseen	2953	247	1	None	599.0	8650.0	1.0	unseen-between	1	3	150.51	2.98	True	True	150.50262997718528	153.48082185629755	[['x', 152.42413626192138]]	-1.0	unseen	False	False	1.914136261921385	2.978191879112273	1.0	33.0	3796305.700175873	False		False			
01	ses-032	35	images_fmri/octopus/octopus_01b.jpg	seen	5125	428	1	None	1071.0	15224.0	1.0	seen-within-between	3	3	154.98	2.98	True	False	154.9838320580311	157.9503906229511	[['b', 158.21279559796676]]	-1.0	unseen	True	False	3.23279559796677	2.9665585649199784	1.0	34.0	3796310.170175873	False		False	7.0	0.0	184.0
01	ses-032	36	images_fmri/porcupine/porcupine_01b.jpg	seen	5845	488	1	None	1227.0	17453.0	1.0	seen-between	2	3	159.45	2.98	True	False	159.44729046802968	162.43062161607668	[['b', 162.3594136191532]]	-1.0	unseen	True	False	2.909413619153213	2.983331148047	1.0	35.0	3796314.6401758734	False		False	7.0	0.0	156.0
01	ses-032	37	images_fmri/crank/crank_01b.jpg	seen	2125	178	1	None	433.0	6250.0	1.0	seen-within-between	3	3	163.92	2.98	True	True	163.9137772200629	166.89721961133182	[['x', 165.98926882911474]]	-1.0	unseen	True	False	2.069268829114748	2.983442391268909	1.0	36.0	3796319.110175873	False		False	7.0	0.0	432.0
01	ses-032	38	images_fmri/porcupine/porcupine_01b.jpg	seen	5845	488	1	None	1227.0	17453.0	1.0	seen-between-within	3	3	168.39	2.98	False	False	168.3858118331991	171.369212416932	[['x', 169.37449154397473]]	2.0	seen	False	True	0.984491543974741	2.983400583732873	1.0	37.0	3796323.5801758734	False		False	0.0	8.93999999994412	2.0
01	ses-032	39	images_fmri/bandage/bandage_01b.jpg	seen	373	32	1	None	67.0	993.0	1.0	seen-between-within	3	3	172.86	2.98	True	True	172.85164361214265	175.83017608895898	[['x', 174.69569840002805]]	-1.0	unseen	True	False	1.8356984000280363	2.9785324768163264	1.0	38.0	3796328.050175873	False		False	0.0	1156.2199908001348	127.0
01	ses-032	40	images_fmri/cheese/cheese_01b.jpg	seen	1597	134	1	None	313.0	4549.0	1.0	seen-between	2	3	177.32999999999996	2.98	True	True	177.33395879995078	180.30110311927277	[['y', 180.41915627522394]]	1.0	seen	False	False	3.089156275223985	2.96714431932196	1.0	39.0	3796332.5201758733	False		False	7.0	0.0	425.0
01	ses-032	41	images_fmri/toast/toast_01b.jpg	seen	7741	646	1	None	1666.0	23513.0	1.0	seen-within	2	3	181.8	2.98	True	False	181.79688239702955	184.7803404303268	[['y', 183.3776879729703]]	1.0	seen	False	False	1.5776879729702955	2.983458033297211	1.0	40.0	3796336.990175873	False		False	0.0	1267.9699908001348	152.0
01	ses-032	42	images_fmri/llama/llama_01b.jpg	unseen	4465	373	1	None	939.0	13405.0	1.0	unseen-within	1	3	186.27	2.98	False	True	186.2689690580592	189.24653588607907	[['y', 188.6021112552844]]	-2.0	unseen	False	True	2.332111255284389	2.977566828019917	1.0	41.0	3796341.4601758732	False		False			
01	ses-032	43	images_fmri/towel_rack/towel_rack_01b.jpg	unseen	7897	659	1	None	1694.0	23898.0	1.0	unseen-between	1	3	190.74	2.98	False	False	190.73015192802995	193.713291649241	[['b', 192.93741284217685]]	-1.0	unseen	False	False	2.197412842176845	2.983139721211046	1.0	42.0	3796345.9301758735	False		False			
01	ses-032	44	images_fmri/banner/banner_01b.jpg	seen	385	33	1	None	71.0	1046.0	1.0	seen-within-between	3	3	195.21	2.98	True	True	195.21672069095075	198.1797517403029	[['b', 197.3616223060526]]	2.0	seen	False	True	2.1516223060525874	2.9630310493521392	1.0	43.0	3796350.400175873	False		False	7.0	0.0	345.0
01	ses-032	45	images_fmri/carousel/carousel_01b.jpg	seen	1429	120	1	None	276.0	4047.0	1.0	seen-within	2	3	199.68	2.98	False	True	199.6805185400881	202.6631814101711	[['b', 201.1665748860687]]	2.0	seen	False	True	1.486574886068695	2.982662870083004	1.0	44.0	3796354.8701758734	False		False	0.0	129.6300000003539	29.0
01	ses-032	46	images_fmri/phone/phone_01b.jpg	seen	5521	461	1	None	1162.0	16532.0	1.0	seen-between-within	3	3	204.15	2.98	False	False	204.14902666630223	207.1296072299592	[['x', 205.70343515696004]]	2.0	seen	False	True	1.5534351569600346	2.9805805636569858	1.0	45.0	3796359.340175873	False		False	0.0	178.79999999981374	40.0
01	ses-032	47	images_fmri/footbath/footbath_01s.jpg	seen	3073	257	1	None	632.0	9116.0	1.0	seen-within	2	3	208.62	2.98	False	False	208.6168246739544	211.59599636727944	[['x', 209.95420922013]]	2.0	seen	False	True	1.334209220129992	2.9791716933250427	1.0	46.0	3796363.8101758733	False		False	0.0	93.87000000011176	21.0
01	ses-032	48	images_fmri/fern/fern_01b.jpg	seen	2869	240	1	None	578.0	8360.0	1.0	seen-within-between	3	3	213.09	2.98	True	True	213.08227611891925	216.06280423793945	[['y', 215.3307631611824]]	1.0	seen	False	False	2.2407631611824	2.980528119020164	1.0	47.0	3796368.280175873	False		False	7.0	0.0	205.0
01	ses-032	49	images_fmri/cactus/cactus_01b.jpg	seen	1213	102	1	None	236.0	3506.0	1.0	seen-between	2	3	217.56	2.98	True	False	217.56370036304	220.5296804918908	[['b', 218.66186374332756]]	-1.0	unseen	True	False	1.1018637433275558	2.965980128850788	1.0	48.0	3796372.7501758733	False		False	7.0	0.0	273.0
01	ses-032	50	images_fmri/chicken_wire/chicken_wire_01b.jpg	unseen	1669	140	1	None	323.0	4679.0	1.0	unseen-within	1	3	222.03	2.98	True	True	222.03197829518467	225.01234726421532	[['x', 223.23317753430456]]	-1.0	unseen	False	False	1.203177534304558	2.9803689690306783	1.0	49.0	3796377.220175873	False		False			
01	ses-032	51	images_fmri/coffee_pot/coffee_pot_01s.jpg	seen	1885	158	1	None	381.0	5484.0	1.0	seen-within-between	3	3	226.5	2.98	False	True	226.50163518823683	229.47884818119928	[['b', 228.1123526492156]]	2.0	seen	False	True	1.6123526492156088	2.97721299296245	1.0	50.0	3796381.690175873	False		False	7.0	0.0	278.0
01	ses-032	52	images_fmri/bassinet/bassinet_01b.jpg	seen	433	37	1	None	86.0	1267.0	1.0	seen-between-within	3	3	230.97	2.98	False	False	230.9675774150528	233.9458609363064	[['x', 232.0360372820869]]	2.0	seen	False	True	1.06603728208691	2.978283521253616	1.0	51.0	3796386.1601758734	False		False	0.0	210.09000000031665	47.0
01	ses-032	53	images_fmri/peanut/peanut_01b.jpg	unseen	5413	452	1	None	1132.0	16114.0	1.0	unseen-between	1	3	235.44	2.98	False	True	235.43387932889163	238.4120937762782	[['x', 236.6408103951253]]	-1.0	unseen	False	False	1.200810395125302	2.978214447386563	1.0	52.0	3796390.630175873	False		False			
01	ses-032	54	images_fmri/contact_lens/contact_lens_01s.jpg	unseen	1993	167	1	None	398.0	5718.0	1.0	unseen-between	1	3	239.91	2.98	False	True	239.9152737823315	242.88388717127964	[['x', 243.42315124208108]]	-1.0	unseen	False	False	3.5131512420810798	2.9686133889481425	1.0	53.0	3796395.1001758734	False		False			
01	ses-032	55	images_fmri/honeycomb/honeycomb_01b.jpg	seen	3793	317	1	None	790.0	11295.0	1.0	seen-within	2	3	244.38	2.98	True	True	244.37845706706867	247.3650977811776	[['b', 245.5152168450877]]	2.0	seen	False	True	1.1352168450877116	2.986640714108944	1.0	54.0	3796399.570175873	False		False	0.0	125.15999999968335	28.0
01	ses-032	56	images_fmri/parachute/parachute_01b.jpg	seen	5353	447	1	None	1119.0	15908.0	1.0	seen-within	2	3	248.85	2.98	True	True	248.8501848932356	251.8285380923189	[['x', 250.21294478001073]]	-1.0	unseen	True	False	1.3629447800107355	2.978353199083358	1.0	55.0	3796404.0401758733	False		False	0.0	219.03000000026077	49.0
01	ses-032	57	images_fmri/cactus/cactus_01b.jpg	seen	1213	102	1	None	236.0	3506.0	1.0	seen-between-within	3	3	253.32	2.98	False	True	253.31464497419077	256.2990458100103	[['b', 254.36522009409964]]	2.0	seen	False	True	1.0452200940996477	2.9844008358195424	1.0	56.0	3796408.510175873	False		False	0.0	35.75999999977648	8.0
01	ses-032	58	images_fmri/bracelet2/bracelet2_01b.jpg	seen	949	80	1	None	189.0	2860.0	1.0	seen-between-within	3	3	257.79	2.98	True	True	257.7826878959313	260.76173012610525	[['b', 258.89378001727164]]	2.0	seen	False	True	1.1037800172716177	2.979042230173945	1.0	57.0	3796412.9801758733	False		False	0.0	120.68999999994412	27.0
01	ses-032	59	images_fmri/peach/peach_01b.jpg	seen	5401	451	1	None	1130.0	16088.0	1.0	seen-between-within	3	3	262.26	2.98	True	False	262.2644084962085	265.2332793571986	[['b', 265.5997468358837]]	-1.0	unseen	True	False	3.339746835883716	2.968870860990137	1.0	58.0	3796417.450175873	False		False	0.0	1187.5099907997064	134.0
01	ses-032	60	images_fmri/thumbtack/thumbtack_01b.jpg	seen	7681	641	1	None	1655.0	23363.0	1.0	seen-within-between	3	3	266.73	2.98	True	False	266.7279014661908	269.7151882709004	[['y', 270.2625986682251]]	1.0	seen	False	False	3.5325986682250914	2.9872868047095835	1.0	59.0	3796421.920175873	False		False	7.0	0.0	290.0
