subject	session	TrialNumber	image_path	condition	image_nr	category_nr	exemplar_nr	test_image_nr	things_category_nr	things_image_nr	things_exemplar_nr	subcondition	repetition	run	onset	duration	response_mapping_flip_h	response_mapping_flip_v	onset_flip	offset_flip	keypresses	response	response_txt	error	response_confidence	response_time	duration_flip	ran	order	session_trial_time	atypical	atypical_log	exclude_session	delay_days	delay_seconds	trials_since_lastrep
01	ses-032	1	images_fmri/jeans/jeans_01s.jpg	unseen	3997	334	1	None	843.0	12046.0	1.0	unseen-between	1	2	3.0	2.98	False	True	3.0034858472645283	5.966663727071136	[['x', 4.427113033365458]]	-1.0	unseen	False	False	1.4271130333654585	2.963177879806608	1.0	0.0	3795451.541897273	False		False			
01	ses-032	2	images_fmri/crutch/crutch_01b.jpg	seen	2245	188	1	None	453.0	6543.0	1.0	seen-within-between	3	2	7.47	2.98	False	False	7.470544215291738	10.453247947152704	[['b', 10.673022298142314]]	-1.0	unseen	True	False	3.203022298142314	2.982703731860965	1.0	1.0	3795456.0118972734	False		False	7.0	0.0	356.0
01	ses-032	3	images_fmri/confetti/confetti_01b.jpg	unseen	1981	166	1	None	397.0	5706.0	1.0	unseen-between	1	2	11.94	2.98	False	True	11.93308279523626	14.922271483112128	[['x', 15.436972374096513]]	-1.0	unseen	False	False	3.4969723740965133	2.989188687875867	1.0	2.0	3795460.481897273	False		False			
01	ses-032	4	images_fmri/manatee/manatee_01b.jpg	seen	4573	382	1	None	965.0	13750.0	1.0	seen-within	2	2	16.41	2.98	True	False	16.399644589051604	19.382982400245965	[['y', 18.16170463897288]]	1.0	seen	False	False	1.7517046389728783	2.9833378111943603	1.0	3.0	3795464.9518972733	False		False	0.0	324.41171220038086	39.0
01	ses-032	5	images_fmri/bolt/bolt_01b.jpg	unseen	829	70	1	None	160.0	2439.0	1.0	unseen-between	1	2	20.88	2.98	False	False	20.886091753374785	23.84951336914673	[['b', 22.67388686304912]]	-1.0	unseen	False	False	1.7938868630491207	2.9634216157719493	1.0	4.0	3795469.421897273	False		False			
01	ses-032	6	images_fmri/raspberry/raspberry_01b.jpg	seen	6133	512	1	None	1285.0	18289.0	1.0	seen-within	2	2	25.35	2.98	True	False	25.35349393216893	28.33322913525626	[['y', 27.010903960093856]]	1.0	seen	False	False	1.6609039600938544	2.97973520308733	1.0	5.0	3795473.8918972732	False		False	0.0	409.34171220008284	58.0
01	ses-032	7	images_fmri/tortilla/tortilla_01b.jpg	unseen	7849	655	1	None	1688.0	23814.0	1.0	unseen-within	1	2	29.82	2.98	True	False	29.82064915820956	32.7994275749661	[['b', 31.203726748004556]]	-1.0	unseen	False	False	1.3837267480045554	2.9787784167565405	1.0	6.0	3795478.361897273	False		False			
01	ses-032	8	images_fmri/coat_rack/coat_rack_01b.jpg	unseen	1849	155	1	None	371.0	5348.0	1.0	unseen-between	1	2	34.29	2.98	False	False	34.28688718006015	37.26610865909606	[['x', 36.559924653265625]]	2.0	seen	True	True	2.269924653265626	2.979221479035914	1.0	7.0	3795482.831897273	False		False			
01	ses-032	9	images_fmri/squeegee/squeegee_01b.jpg	unseen	7117	594	1	None	1528.0	21594.0	1.0	unseen-within	1	2	38.76	2.98	True	False	38.75337163032964	41.732554383110255	[['b', 40.47007028339431]]	-1.0	unseen	False	False	1.7100702833943089	2.9791827527806163	1.0	8.0	3795487.301897273	False		False			
01	ses-032	10	images_fmri/bean/bean_01b.jpg	seen	481	41	1	None	103.0	1544.0	1.0	seen-between	2	2	43.23	2.98	True	False	43.23547416226938	46.20426245033741	[['b', 44.39695551339537]]	-1.0	unseen	True	False	1.1669555133953722	2.9687882880680263	1.0	9.0	3795491.771897273	False		False	7.0	0.0	138.0
01	ses-032	11	images_fmri/soda_fountain/soda_fountain_01s.jpg	seen	6949	580	1	None	1492.0	21113.0	1.0	seen-within	2	2	47.7	2.98	True	True	47.70303498022258	50.68405253114179							2.981017550919205	1.0	10.0	3795496.2418972733	False		False	0.0	436.16171220038086	64.0
01	ses-032	12	images_fmri/streetlight/streetlight_01b.jpg	seen	7297	609	1	None	1572.0	22197.0	1.0	seen-between-within	3	2	52.17	2.98	False	False	52.169581446330994	55.15252727130428	[['y', 52.202638280112296], ['x', 53.0017810491845]]	-2.0	unseen	True	True	0.0326382801122946	2.982945824973285	1.0	11.0	3795500.711897273	False		False	0.0	454.04171219980344	68.0
01	ses-032	13	images_fmri/camel/camel_01b.jpg	seen	1273	107	1	None	246.0	3639.0	1.0	seen-between	2	2	56.64	2.98	True	False	56.63511918717995	59.61742045916617	[['b', 57.64279380114749]]	-1.0	unseen	True	False	1.0027938011474902	2.9823012719862163	1.0	12.0	3795505.1818972733	False		False	7.0	0.0	198.0
01	ses-032	14	images_fmri/acorn/acorn_01b.jpg	unseen	1	1	1	None	4.0	43.0	1.0	unseen-within	1	2	61.11	2.98	True	True	61.10280629899353	64.08192296838388	[['x', 62.391686112154275]]	-1.0	unseen	False	False	1.2816861121542755	2.9791166693903506	1.0	13.0	3795509.651897273	False		False			
01	ses-032	15	images_fmri/joystick/joystick_01b.jpg	seen	4033	337	1	None	853.0	12200.0	1.0	seen-within-between	3	2	65.58	2.98	True	False	65.58298455132172	68.54835629835725	[['x', 67.49454930331558]]	2.0	seen	False	True	1.9145493033155816	2.965371747035533	1.0	14.0	3795514.121897273	False		False	7.0	0.0	235.0
01	ses-032	16	images_fmri/sickle/sickle_01b.jpg	seen	6757	564	1	None	1442.0	20444.0	1.0	seen-between	2	2	70.05	2.98	False	True	70.05206285836175	73.03517497330904	[['a', 73.2765671829693]]	1.0	seen	False	False	3.226567182969305	2.983112114947289	1.0	15.0	3795518.591897273	False		False	7.0	0.0	126.0
01	ses-032	17	images_fmri/dashboard/dashboard_01b.jpg	seen	2341	196	1	None	476.0	6884.0	1.0	seen-within-between	3	2	74.52	2.98	False	True	74.51493909629062	77.49821152212098	[['y', 76.7086027469486]]	-2.0	unseen	True	True	2.188602746948604	2.983272425830364	1.0	16.0	3795523.061897273	False		False	7.0	0.0	89.0
01	ses-032	18	images_fmri/squeegee/squeegee_01b.jpg	seen	7117	594	1	None	1528.0	21594.0	1.0	seen-within	2	2	78.99	2.98	False	False	78.98708768794313	81.96969335339963							2.982605665456504	1.0	17.0	3795527.5318972734	False		False	0.0	40.230000000447035	9.0
01	ses-032	19	images_fmri/sickle/sickle_01b.jpg	seen	6757	564	1	None	1442.0	20444.0	1.0	seen-between-within	3	2	83.46	2.98	True	False	83.44805895816535	86.43160879425704	[['x', 84.40409164037555]]	2.0	seen	False	True	0.9440916403755608	2.983549836091697	1.0	18.0	3795532.001897273	False		False	0.0	13.410000000149012	3.0
01	ses-032	20	images_fmri/guillotine/guillotine_01b.jpg	seen	3517	294	1	None	722.0	10354.0	1.0	seen-between	2	2	87.92999999999998	2.98	False	False	87.9342299872078	90.89799830922856	[['a', 89.92479644436389]]	1.0	seen	False	False	1.9947964443639137	2.963768322020769	1.0	19.0	3795536.4718972733	False		False	7.0	0.0	354.0
01	ses-032	21	images_fmri/giraffe/giraffe_01b.jpg	seen	3241	271	1	None	676.0	9671.0	1.0	seen-within-between	3	2	92.4	2.98	False	False	92.4006936904043	95.3864555703476	[['a', 95.50944965705276]]	1.0	seen	False	False	3.1094496570527497	2.985761879943311	1.0	20.0	3795540.941897273	False		False	7.0	0.0	217.0
01	ses-032	22	images_fmri/crayfish/crayfish_01b.jpg	seen	2149	180	1	None	435.0	6283.0	1.0	seen-within-between	3	2	96.87	2.98	True	True	96.8643897343427	99.85008692601696	[['b', 100.63628463214263]]	2.0	seen	False	True	3.7662846321426287	2.9856971916742623	1.0	21.0	3795545.4118972733	False		False	7.0	0.0	367.0
01	ses-032	23	images_fmri/cat/cat_01b.jpg	seen	1477	124	1	None	285.0	4162.0	1.0	seen-between-within	3	2	101.34	2.98	False	True	101.33095564926045	104.31942066224292							2.988465012982488	1.0	22.0	3795549.881897273	False		False	0.0	476.3917121998966	73.0
01	ses-032	24	images_fmri/hay/hay_01b.jpg	seen	3673	307	1	None	762.0	10909.0	1.0	seen-within-between	3	2	105.81	2.98	True	False	105.80262360628694	108.78076624916866	[['b', 108.43548254435882]]	-1.0	unseen	True	False	2.625482544358817	2.9781426428817213	1.0	23.0	3795554.351897273	False		False	7.0	0.0	166.0
01	ses-032	25	images_fmri/snowplow/snowplow_01b.jpg	seen	6925	578	1	None	1485.0	21026.0	1.0	seen-within-between	3	2	110.28	2.98	True	False	110.28070464218035	113.24730196408927	[['y', 112.13611727720127]]	1.0	seen	False	False	1.856117277201264	2.966597321908921	1.0	24.0	3795558.821897273	False		False	7.0	0.0	209.0
01	ses-032	26	images_fmri/fig/fig_01b.jpg	seen	2905	243	1	None	582.0	8419.0	1.0	seen-within	2	2	114.75	2.98	True	True	114.75130315124989	117.73055814905092	[['y', 116.9853018973954]]	1.0	seen	False	False	2.235301897395402	2.979254997801036	1.0	25.0	3795563.291897273	False		False	0.0	324.4117121999152	39.0
01	ses-032	27	images_fmri/computer_screen/computer_screen_01b.jpg	unseen	1969	165	1	None	396.0	5690.0	1.0	unseen-within	1	2	119.22	2.98	False	True	119.219113657251	122.20164466137066							2.9825310041196644	1.0	26.0	3795567.7618972734	False		False			
01	ses-032	28	images_fmri/chalk/chalk_01b.jpg	seen	1561	131	1	None	303.0	4411.0	1.0	seen-between	2	2	123.69	2.98	False	True	123.68461360316724	126.663654867094	[['x', 124.95504850195721]]	-1.0	unseen	True	False	1.2650485019572102	2.9790412639267743	1.0	27.0	3795572.231897273	False		False	7.0	0.0	202.0
01	ses-032	29	images_fmri/tortilla/tortilla_01b.jpg	seen	7849	655	1	None	1688.0	23814.0	1.0	seen-within	2	2	128.16	2.98	False	False	128.15149091323838	131.13050210522488	[['b', 130.2725014341995]]	-1.0	unseen	True	False	2.1125014341995154	2.979011191986501	1.0	28.0	3795576.7018972733	False		False	0.0	98.34000000031665	22.0
01	ses-032	30	images_fmri/horseshoe/horseshoe_01b.jpg	seen	3829	320	1	None	800.0	11438.0	1.0	seen-within-between	3	2	132.63	2.98	True	True	132.63034119317308	135.6022605691105	[['x', 135.88133168127388]]	-1.0	unseen	True	False	3.251331681273882	2.971919375937432	1.0	29.0	3795581.171897273	False		False	7.0	0.0	277.0
01	ses-032	31	images_fmri/sweatsuit/sweatsuit_01s.jpg	seen	7405	618	1	None	1594.0	22519.0	1.0	seen-between-within	3	2	137.1	2.98	False	True	137.0967350360006	140.08333472907543	[['b', 137.98372088000178]]	2.0	seen	False	True	0.883720880001789	2.9865996930748224	1.0	30.0	3795585.6418972732	False		False	0.0	427.2217121999711	62.0
01	ses-032	32	images_fmri/saltshaker/saltshaker_01b.jpg	seen	6421	536	1	None	1351.0	19205.0	1.0	seen-between	2	2	141.57	2.98	True	True	141.5677844863385	144.54673402709886	[['x', 143.97096473304555]]	-1.0	unseen	True	False	2.400964733045555	2.978949540760368	1.0	31.0	3795590.111897273	False		False	7.0	0.0	393.0
01	ses-032	33	images_fmri/game/game_01s.jpg	unseen	3145	263	1	None	655.0	9407.0	1.0	unseen-between	1	2	146.04	2.98	False	True	146.03523832606152	149.01763799833134							2.982399672269821	1.0	32.0	3795594.581897273	False		False			
01	ses-032	34	images_fmri/granite/granite_01b.jpg	seen	3361	281	1	None	701.0	10037.0	1.0	seen-between	2	2	150.51	2.98	True	False	150.51613149000332	153.48496982036158	[['b', 153.7872074963525]]	-1.0	unseen	True	False	3.277207496352503	2.968838330358267	1.0	33.0	3795599.051897273	False		False	7.0	0.0	325.0
01	ses-032	35	images_fmri/bow2/bow2_01s.jpg	unseen	877	74	1	None	176.0	2678.0	1.0	unseen-within	1	2	154.98	2.98	True	False	154.9796138261445	157.96292830631137	[['b', 157.81059034494683]]	-1.0	unseen	False	False	2.8305903449468417	2.9833144801668823	1.0	34.0	3795603.521897273	False		False			
01	ses-032	36	images_fmri/wheelbarrow/wheelbarrow_01b.jpg	unseen	8425	703	1	None	1808.0	25464.0	1.0	unseen-within	1	2	159.45	2.98	True	False	159.4462982043624	162.43133594514802							2.985037740785629	1.0	35.0	3795607.9918972733	False		False			
01	ses-032	37	images_fmri/graffiti/graffiti_01b.jpg	unseen	3337	279	1	None	698.0	9989.0	1.0	unseen-within	1	2	163.92	2.98	False	False	163.91792966611683	166.9007267439738							2.982797077856958	1.0	36.0	3795612.461897273	False		False			
01	ses-032	38	images_fmri/icicle/icicle_01b.jpg	unseen	3913	327	1	None	825.0	11790.0	1.0	unseen-within	1	2	168.39	2.98	True	True	168.3845020690933	171.3625281942077	[['x', 169.69003283930942]]	-1.0	unseen	False	False	1.3000328393094378	2.978026125114411	1.0	37.0	3795616.9318972733	False		False			
01	ses-032	39	images_fmri/guitar/guitar_01b.jpg	unseen	3529	295	1	None	724.0	10382.0	1.0	unseen-between	1	2	172.86	2.98	False	True	172.86351798800752	175.83377932198346	[['x', 176.2332411520183]]	-1.0	unseen	False	False	3.373241152018295	2.970261333975941	1.0	38.0	3795621.401897273	False		False			
01	ses-032	40	images_fmri/granite/granite_01b.jpg	seen	3361	281	1	None	701.0	10037.0	1.0	seen-between-within	3	2	177.32999999999996	2.98	True	False	177.32912002317607	180.3128271973692	[['b', 178.7631686902605]]	-1.0	unseen	True	False	1.433168690260544	2.983707174193114	1.0	39.0	3795625.871897273	False		False	0.0	26.820000000298023	6.0
01	ses-032	41	images_fmri/closet/closet_01b.jpg	seen	1825	153	1	None	361.0	5214.0	1.0	seen-between	2	2	181.8	2.98	False	False	181.80021991813555	184.7825013943948	[['y', 182.17951756203547]]	-2.0	unseen	True	True	0.3795175620354598	2.982281476259232	1.0	40.0	3795630.341897273	False		False	7.0	0.0	190.0
01	ses-032	42	images_fmri/smoke_alarm/smoke_alarm_01b.jpg	unseen	6865	573	1	None	1474.0	20877.0	1.0	unseen-within	1	2	186.27	2.98	False	True	186.26682394417003	189.24553427798676	[['x', 187.73053436912596]]	-1.0	unseen	False	False	1.460534369125952	2.978710333816707	1.0	41.0	3795634.811897273	False		False			
01	ses-032	43	images_fmri/key/key_01b.jpg	seen	4117	344	1	None	870.0	12441.0	1.0	seen-between	2	2	190.74	2.98	True	True	190.72997640632093	193.7121147112921	[['x', 191.80812428798527]]	-1.0	unseen	True	False	1.0681242879852562	2.9821383049711585	1.0	42.0	3795639.2818972734	False		False	7.0	0.0	191.0
01	ses-032	44	images_fmri/spider/spider_01b.jpg	unseen	7057	589	1	None	1514.0	21405.0	1.0	unseen-within	1	2	195.21	2.98	True	False	195.21587765030563	198.1786352461204	[['b', 197.24466464528814]]	-1.0	unseen	False	False	2.034664645288132	2.9627575958147645	1.0	43.0	3795643.751897273	False		False			
01	ses-032	45	images_fmri/whip/whip_01b.jpg	seen	8449	705	1	None	1810.0	25488.0	1.0	seen-between-within	3	2	199.68	2.98	True	True	199.6815591831692	202.66484740609303							2.983288222923875	1.0	44.0	3795648.2218972733	False		False	0.0	413.81171220028773	59.0
01	ses-032	46	images_fmri/burner/burner_01b.jpg	seen	1153	97	1	None	225.0	3356.0	1.0	seen-between	2	2	204.15	2.98	False	True	204.1503048869781	207.13063312601295							2.9803282390348613	1.0	45.0	3795652.691897273	False		False	7.0	0.0	142.0
01	ses-032	47	images_fmri/brush/brush_01s.jpg	seen	1045	88	1	None	206.0	3104.0	1.0	seen-within-between	3	2	208.62	2.98	False	False	208.61680579697716	211.59859080519527							2.9817850082181394	1.0	46.0	3795657.1618972733	False		False	7.0	0.0	134.0
01	ses-032	48	images_fmri/girl/girl_01b.jpg	seen	3253	272	1	None	677.0	9695.0	1.0	seen-between	2	2	213.09	2.98	False	True	213.08360631298277	216.06149912904948	[['b', 215.23173571098596]]	2.0	seen	False	True	2.141735710985955	2.977892816066742	1.0	47.0	3795661.631897273	False		False	7.0	0.0	187.0
01	ses-032	49	images_fmri/kite/kite_01b.jpg	unseen	4141	346	1	None	875.0	12524.0	1.0	unseen-within	1	2	217.56	2.98	False	True	217.564447124023	220.5279641202651	[['x', 219.52080290811136]]	-1.0	unseen	False	False	1.9608029081113612	2.963516996242106	1.0	48.0	3795666.101897273	False		False			
01	ses-032	50	images_fmri/blazer/blazer_01b.jpg	unseen	709	60	1	None	138.0	2100.0	1.0	unseen-between	1	2	222.03	2.98	True	True	222.03177790902555	225.01140777906403	[['x', 223.87088303640485]]	-1.0	unseen	False	False	1.840883036404847	2.97962987003848	1.0	49.0	3795670.571897273	False		False			
01	ses-032	51	images_fmri/flower/flower_01b.jpg	seen	3025	253	1	None	620.0	8938.0	1.0	seen-within-between	3	2	226.5	2.98	False	True	226.49847380118445	229.4778463533148	[['a', 228.4828570364043]]	1.0	seen	False	False	1.982857036404312	2.9793725521303718	1.0	50.0	3795675.041897273	False		False	7.0	0.0	351.0
01	ses-032	52	images_fmri/beachball/beachball_01b.jpg	seen	457	39	1	None	100.0	1495.0	1.0	seen-between	2	2	230.97	2.98	True	True	230.9660200122744	233.9445872302167	[['b', 232.38840323127806]]	2.0	seen	False	True	1.418403231278063	2.9785672179423277	1.0	51.0	3795679.5118972734	False		False	7.0	0.0	422.0
01	ses-032	53	images_fmri/jersey/jersey_01b.jpg	seen	4021	336	1	None	847.0	12106.0	1.0	seen-between-within	3	2	235.44	2.98	False	False	235.4332485119812	238.41563456505537							2.9823860530741517	1.0	52.0	3795683.981897273	False		False	0.0	538.9717121999711	87.0
01	ses-032	54	images_fmri/kangaroo/kangaroo_01b.jpg	unseen	4069	340	1	None	863.0	12333.0	1.0	unseen-between	1	2	239.91	2.98	False	True	239.91448569810015	242.88269898621363	[['a', 243.80740265036002]]	1.0	seen	True	False	3.897402650360021	2.968213288113475	1.0	53.0	3795688.4518972733	False		False			
01	ses-032	55	images_fmri/diaper/diaper_01b.jpg	unseen	2389	200	1	None	486.0	7027.0	1.0	unseen-within	1	2	244.38	2.98	True	False	244.37733387807384	247.36465204833075							2.9873181702569127	1.0	54.0	3795692.921897273	False		False			
01	ses-032	56	images_fmri/ferret/ferret_01b.jpg	seen	2881	241	1	None	579.0	8372.0	1.0	seen-within-between	3	2	248.85	2.98	True	False	248.84902044013143	251.83006961736828							2.981049177236855	1.0	55.0	3795697.3918972732	False		False	7.0	0.0	122.0
01	ses-032	57	images_fmri/burner/burner_01b.jpg	seen	1153	97	1	None	225.0	3356.0	1.0	seen-between-within	3	2	253.32	2.98	True	True	253.3150506592356	256.29383077519014	[['x', 255.78775657294318]]	-1.0	unseen	True	False	2.467756572943188	2.978780115954578	1.0	56.0	3795701.861897273	False		False	0.0	49.169999999925494	11.0
01	ses-032	58	images_fmri/diaper/diaper_01b.jpg	seen	2389	200	1	None	486.0	7027.0	1.0	seen-within	2	2	257.79	2.98	False	True	257.7814872651361	260.7603338062763	[['x', 259.7054352373816]]	-1.0	unseen	True	False	1.9154352373815868	2.9788465411402285	1.0	57.0	3795706.331897273	False		False	0.0	13.410000000149012	3.0
01	ses-032	59	images_fmri/bow2/bow2_01s.jpg	seen	877	74	1	None	176.0	2678.0	1.0	seen-within	2	2	262.26	2.98	True	True	262.26257326314226	265.2269369843416	[['y', 264.5372509951703]]	1.0	seen	False	False	2.277250995170334	2.9643637211993337	1.0	58.0	3795710.801897273	False		False	0.0	107.27999999979511	24.0
01	ses-032	60	images_fmri/television/television_01b.jpg	seen	7609	635	1	None	1642.0	23176.0	1.0	seen-within-between	3	2	266.73	2.98	False	False	266.7299291789532	269.7131074410863	[['b', 270.160221778322]]	-1.0	unseen	True	False	3.430221778321993	2.9831782621331517	1.0	59.0	3795715.271897273	False		False	7.0	0.0	361.0
