subject	session	TrialNumber	image_path	condition	image_nr	category_nr	exemplar_nr	test_image_nr	things_category_nr	things_image_nr	things_exemplar_nr	subcondition	repetition	run	onset	duration	response_mapping_flip_h	response_mapping_flip_v	onset_flip	offset_flip	keypresses	response	response_txt	error	response_confidence	response_time	duration_flip	ran	order	session_trial_time	atypical	atypical_log	exclude_session	delay_days	delay_seconds	trials_since_lastrep
06	ses-011	1	images_fmri/pepper1/pepper1_03s.jpg	unseen	5499	459	3	None	1151.0	16372.0	3.0	unseen-within	1	6	3.0	2.98	True	True	2.983325958251953	5.966638088226318	[['a', 6.07494592666626]]	-2.0	unseen	False	True	3.07494592666626	2.983312129974365	1.0	0.0	1624478224.8762	False		False			
06	ses-011	2	images_fmri/baby/baby_03s.jpg	unseen	267	23	3	None	47.0	649.0	3.0	unseen-between	1	6	7.47	2.98	True	False	7.449754953384399	10.43307614326477	[['a', 8.768555879592896]]	-2.0	unseen	False	True	1.2985558795928958	2.983321189880371	1.0	1.0	1624478229.3426	False		False			
06	ses-011	3	images_fmri/egg/egg_03s.jpg	unseen	2703	226	3	None	547.0	7937.0	3.0	unseen-between	1	6	11.94	2.98	True	True	11.93304991722107	14.900139093399048	[['b', 14.34828805923462]]	2.0	seen	True	True	2.40828805923462	2.9670891761779785	1.0	2.0	1624478233.8259	False		False			
06	ses-011	4	images_fmri/lollipop/lollipop_03s.jpg	unseen	4515	377	3	None	946.0	13494.0	3.0	unseen-between	1	6	16.41	2.98	False	True	16.399604082107544	19.383038997650143	[['y', 19.0305118560791]]	-2.0	unseen	False	True	2.6205118560791014	2.9834349155426025	1.0	3.0	1624478238.2925	False		False			
06	ses-011	5	images_fmri/grenade/grenade_03s.jpg	unseen	3459	289	3	None	714.0	10240.0	3.0	unseen-between	1	6	20.88	2.98	False	True	20.86646509170532	23.84955406188965	[['y', 22.020668983459473]]	-2.0	unseen	False	True	1.1406689834594737	2.983088970184326	1.0	4.0	1624478242.7594	False		False			
06	ses-011	6	images_fmri/pocketknife/pocketknife_03s.jpg	seen	5763	481	3	None	1208.0	17165.0	3.0	seen-between-within	3	6	25.35	2.98	False	False	25.332685947418213	28.316162109375	[['x', 26.374269008636475]]	2.0	seen	False	True	1.0242690086364732	2.983476161956787	1.0	5.0	1624478247.2256	False		False	0.0	86.74760007858276	9.0
06	ses-011	7	images_fmri/iceskate/iceskate_03s.jpg	seen	3903	326	3	None	824.0	11778.0	3.0	seen-between-within	3	6	29.82	2.98	False	False	29.799232959747314	32.78269600868225	[['x', 30.745215892791748]]	2.0	seen	False	True	0.9252158927917478	2.9834630489349365	1.0	6.0	1624478251.6921	False		False	0.0	1494.0427000522614	286.0
06	ses-011	8	images_fmri/dolphin/dolphin_03n.jpg	unseen	2499	209	3	None	503.0	7263.0	3.0	unseen-between	1	6	34.29	2.98	True	False	34.28244209289551	37.24913311004639	[['a', 36.77934694290161]]	-2.0	unseen	False	True	2.489346942901612	2.966691017150879	1.0	7.0	1624478256.1753	False		False			
06	ses-011	9	images_fmri/celery/celery_03s.jpg	seen	1515	127	3	None	292.0	4262.0	3.0	seen-between	2	6	38.76	2.98	False	False	38.748971939086914	41.73233413696289	[['y', 40.08939599990845]]	-2.0	unseen	True	True	1.3293959999084493	2.983362197875977	1.0	8.0	1624478260.6419	False		False	7.0	0.0	530.0
06	ses-011	10	images_fmri/sleeping_bag/sleeping_bag_03s.jpg	seen	6831	570	3	None	1463.0	20735.0	3.0	seen-between-within	3	6	43.23	2.98	False	True	43.2155339717865	46.1988570690155	[['b', 44.25652885437012]]	2.0	seen	False	True	1.0265288543701203	2.983323097229004	1.0	9.0	1624478265.1084	False		False	0.0	522.1525001525879	98.0
06	ses-011	11	images_fmri/fence/fence_03s.jpg	unseen	2859	239	3	None	576.0	8324.0	3.0	unseen-within	1	6	47.7	2.98	True	True	47.68210411071777	50.66541314125061	[['a', 50.16506600379944]]	-2.0	unseen	False	True	2.465066003799436	2.983309030532837	1.0	10.0	1624478269.5750	False		False			
06	ses-011	12	images_fmri/celery/celery_03s.jpg	seen	1515	127	3	None	292.0	4262.0	3.0	seen-between-within	3	6	52.17	2.98	False	False	52.148618936538696	55.131951093673706	[['x', 53.07026505470276]]	2.0	seen	False	True	0.9002650547027571	2.9833321571350098	1.0	11.0	1624478274.0415	False		False	0.0	13.3996000289917	3.0
06	ses-011	13	images_fmri/cork/cork_03s.jpg	seen	2031	170	3	None	410.0	5888.0	3.0	seen-between-within	3	6	56.64	2.98	True	True	56.631829023361206	59.598392963409424	[['b', 58.01824593544006]]	2.0	seen	False	True	1.378245935440063	2.9665639400482178	1.0	12.0	1624478278.5247	False		False	0.0	1453.8269000053406	277.0
06	ses-011	14	images_fmri/crib/crib_03s.jpg	unseen	2187	183	3	None	442.0	6391.0	3.0	unseen-between	1	6	61.11	2.98	False	False	61.09842300415039	64.08162498474121	[['y', 63.20192098617554]]	-2.0	unseen	False	True	2.0919209861755377	2.9832019805908203	1.0	13.0	1624478282.9913	False		False			
06	ses-011	15	images_fmri/kite/kite_03s.jpg	unseen	4143	346	3	None	875.0	12526.0	3.0	unseen-between	1	6	65.58	2.98	False	False	65.56515502929688	68.54862093925476	[['y', 67.06515789031982]]	-2.0	unseen	False	True	1.485157890319826	2.9834659099578857	1.0	14.0	1624478287.4580	False		False			
06	ses-011	16	images_fmri/mosquito_net/mosquito_net_03s.jpg	seen	4899	409	3	None	1022.0	14562.0	3.0	seen-within-between	3	6	70.05	2.98	True	True	70.03160095214844	73.01498413085938	[['a', 72.98739504814148]]	-2.0	unseen	True	True	2.9373950481414823	2.983383178710937	1.0	15.0	1624478291.9245	False		False	7.0	0.0	602.0
06	ses-011	17	images_fmri/tamale/tamale_03s.jpg	seen	7551	630	3	None	1619.0	22857.0	3.0	seen-within	2	6	74.52	2.98	True	False	74.49791693687439	77.48143911361694	[['x', 75.61032199859619]]	2.0	seen	False	True	1.0903219985961954	2.9835221767425537	1.0	16.0	1624478296.3908	False		False	0.0	815.2441999912262	153.0
06	ses-011	18	images_fmri/macadamia/macadamia_03s.jpg	seen	4527	378	3	None	952.0	13575.0	3.0	seen-within	2	6	78.99	2.98	False	True	78.98121213912964	81.94801807403564	[['b', 79.96587491035461]]	2.0	seen	False	True	0.9758749103546194	2.966805934906006	1.0	17.0	1624478300.8741	False		False	0.0	283.44230008125305	53.0
06	ses-011	19	images_fmri/walrus/walrus_03s.jpg	seen	8307	693	3	None	1780.0	25092.0	3.0	seen-between-within	3	6	83.46	2.98	True	True	83.44778108596802	86.43108105659485	[['b', 84.58288288116455]]	2.0	seen	False	True	1.122882881164557	2.983299970626831	1.0	18.0	1624478305.3407	False		False	0.0	602.6168999671936	116.0
06	ses-011	20	images_fmri/wine/wine_03s.jpg	unseen	8499	709	3	None	1824.0	25676.0	3.0	unseen-between	1	6	87.92999999999998	2.98	False	False	87.91429901123047	90.89760494232178	[['x', 89.9710898399353]]	2.0	seen	True	True	2.0410898399353243	2.9833059310913086	1.0	19.0	1624478309.8072	False		False			
06	ses-011	21	images_fmri/bunkbed/bunkbed_03s.jpg	seen	1143	96	3	None	223.0	3331.0	3.0	seen-between	2	6	92.4	2.98	True	True	92.38085103034972	95.364187002182	[['b', 94.3316490650177]]	2.0	seen	False	True	1.9316490650176945	2.9833359718322754	1.0	20.0	1624478314.2737	False		False	7.0	0.0	616.0
06	ses-011	22	images_fmri/octopus/octopus_03s.jpg	seen	5127	428	3	None	1071.0	15226.0	3.0	seen-between	2	6	96.87	2.98	True	False	96.86407399177553	99.83067107200624	[['x', 98.85086488723755]]	2.0	seen	False	True	1.9808648872375445	2.966597080230713	1.0	21.0	1624478318.7570	False		False	7.0	0.0	343.0
06	ses-011	23	images_fmri/wasp/wasp_03s.jpg	unseen	8355	697	3	None	1786.0	25170.0	3.0	unseen-within	1	6	101.34	2.98	False	True	101.3306360244751	104.29723000526428	[['b', 103.71385192871094]]	2.0	seen	True	True	2.373851928710934	2.966593980789185	1.0	22.0	1624478323.2235	False		False			
06	ses-011	24	images_fmri/chili/chili_03s.jpg	unseen	1683	141	3	None	328.0	4746.0	3.0	unseen-within	1	6	105.81	2.98	False	False	105.79716610908508	108.78038811683656	[['y', 107.90679693222046]]	-2.0	unseen	False	True	2.0967969322204567	2.983222007751465	1.0	23.0	1624478327.6901	False		False			
06	ses-011	25	images_fmri/peanut/peanut_03s.jpg	seen	5415	452	3	None	1132.0	16116.0	3.0	seen-between	2	6	110.28	2.98	False	False	110.26368308067322	113.24689602851868	[['y', 112.14586091041565]]	-2.0	unseen	True	True	1.8658609104156485	2.983212947845459	1.0	24.0	1624478332.1566	False		False	7.0	0.0	540.0
06	ses-011	26	images_fmri/television/television_03s.jpg	unseen	7611	635	3	None	1642.0	23178.0	3.0	unseen-within	1	6	114.75	2.98	False	False	114.73024010658264	117.71362614631651	[['y', 116.5387749671936]]	-2.0	unseen	False	True	1.7887749671936035	2.9833860397338867	1.0	25.0	1624478336.6231	False		False			
06	ses-011	27	images_fmri/applesauce/applesauce_03s.jpg	seen	195	17	3	None	33.0	460.0	3.0	seen-within-between	3	6	119.22	2.98	True	False	119.21369314193726	122.18006896972656	[['x', 120.4457049369812]]	2.0	seen	False	True	1.2257049369812023	2.966375827789306	1.0	26.0	1624478341.1066	False		False	7.0	0.0	497.0
06	ses-011	28	images_fmri/coffin/coffin_03s.jpg	seen	1899	159	3	None	384.0	5528.0	3.0	seen-within	2	6	123.69	2.98	True	True	123.67998504638672	126.6634600162506	[['b', 124.78079605102539]]	2.0	seen	False	True	1.090796051025393	2.983474969863892	1.0	27.0	1624478345.5729	False		False	0.0	589.2006001472473	113.0
06	ses-011	29	images_fmri/wasp/wasp_03s.jpg	seen	8355	697	3	None	1786.0	25170.0	3.0	seen-within	2	6	128.16	2.98	True	False	128.14655303955078	131.12983202934265	[['x', 129.35281491279602]]	2.0	seen	False	True	1.192814912796024	2.98327898979187	1.0	28.0	1624478350.0394	False		False	0.0	26.815900087356567	6.0
06	ses-011	30	images_fmri/airbag/airbag_03s.jpg	unseen	15	2	3	None	8.0	100.0	3.0	unseen-between	1	6	132.63	2.98	False	False	132.61308097839355	135.59652996063232	[['y', 135.10097002983093]]	-2.0	unseen	False	True	2.470970029830937	2.983448982238769	1.0	29.0	1624478354.5060	False		False			
06	ses-011	31	images_fmri/fence/fence_03s.jpg	seen	2859	239	3	None	576.0	8324.0	3.0	seen-within	2	6	137.1	2.98	True	True	137.07964396476746	140.0629961490631	[['b', 137.98855900764465]]	2.0	seen	False	True	0.888559007644659	2.9833521842956543	1.0	30.0	1624478358.9725	False		False	0.0	89.39750003814697	20.0
06	ses-011	32	images_fmri/breadstick/breadstick_03s.jpg	seen	999	84	3	None	197.0	2982.0	3.0	seen-between	2	6	141.57	2.98	True	True	141.56283402442932	144.52934503555298	[['b', 143.86142086982727]]	2.0	seen	False	True	2.2914208698272773	2.966511011123657	1.0	31.0	1624478363.4557	False		False	7.0	0.0	407.0
06	ses-011	33	images_fmri/weasel/weasel_03n.jpg	seen	8391	700	3	None	1798.0	25327.0	3.0	seen-within-between	3	6	146.04	2.98	True	True	146.02936911582947	149.0127100944519	[['y', 147.91646599769592]]	1.0	seen	False	False	1.8764659976959308	2.9833409786224365	1.0	32.0	1624478367.9223	False		False	7.0	0.0	407.0
06	ses-011	34	images_fmri/credit_card/credit_card_03s.jpg	unseen	2175	182	3	None	439.0	6341.0	3.0	unseen-between	1	6	150.51	2.98	False	False	150.49592208862305	153.47908997535706	[['y', 152.27153491973877]]	-2.0	unseen	False	True	1.7615349197387786	2.983167886734009	1.0	33.0	1624478372.3888	False		False			
06	ses-011	35	images_fmri/egg_roll/egg_roll_03n.jpg	seen	2715	227	3	None	548.0	7952.0	3.0	seen-between-within	3	6	154.98	2.98	False	False	154.96246314048767	157.94573211669922	[['x', 155.8355519771576]]	2.0	seen	False	True	0.855551977157603	2.983268976211548	1.0	34.0	1624478376.8553	False		False	0.0	430.93819999694824	86.0
06	ses-011	36	images_fmri/scallion/scallion_03s.jpg	unseen	6471	540	3	None	1373.0	19501.0	3.0	unseen-between	1	6	159.45	2.98	False	False	159.4290030002594	162.41224908828735	[['y', 160.767431974411]]	-2.0	unseen	False	True	1.317431974411022	2.983246088027954	1.0	35.0	1624478381.3219	False		False			
06	ses-011	37	images_fmri/forklift/forklift_03s.jpg	seen	3111	260	3	None	636.0	9169.0	3.0	seen-within-between	3	6	163.92	2.98	True	True	163.9122121334076	166.87935209274292	[['a', 167.2142848968506]]	-2.0	unseen	True	True	3.2942848968505984	2.967139959335327	1.0	36.0	1624478385.8051	False		False	7.0	0.0	413.0
06	ses-011	38	images_fmri/fireworks/fireworks_03s.jpg	seen	2955	247	3	None	599.0	8652.0	3.0	seen-within-between	3	6	168.39	2.98	False	False	168.37876200675964	171.3622529506683	[['x', 169.21233701705933]]	2.0	seen	False	True	0.8223370170593398	2.9834909439086914	1.0	37.0	1624478390.2716	False		False	7.0	0.0	401.0
06	ses-011	39	images_fmri/breadstick/breadstick_03s.jpg	seen	999	84	3	None	197.0	2982.0	3.0	seen-between-within	3	6	172.86	2.98	True	False	172.84562706947327	175.8288791179657	[['x', 174.13930201530457]]	2.0	seen	False	True	1.2793020153045518	2.983252048492432	1.0	38.0	1624478394.7385	False		False	0.0	31.28280019760132	7.0
06	ses-011	40	images_fmri/chili/chili_03s.jpg	seen	1683	141	3	None	328.0	4746.0	3.0	seen-within	2	6	177.32999999999996	2.98	True	False	177.311861038208	180.29530811309812	[['x', 179.36712193489075]]	2.0	seen	False	True	2.0371219348907914	2.9834470748901367	1.0	39.0	1624478399.2047	False		False	0.0	71.51460003852844	16.0
06	ses-011	41	images_fmri/smoke_alarm/smoke_alarm_03s.jpg	seen	6867	573	3	None	1474.0	20879.0	3.0	seen-within	2	6	181.8	2.98	False	True	181.77840614318848	184.76180791854856	[['b', 182.8306679725647]]	2.0	seen	False	True	1.030667972564686	2.9834017753601074	1.0	40.0	1624478403.6713	False		False	0.0	651.782399892807	127.0
06	ses-011	42	images_fmri/ferret/ferret_03s.jpg	seen	2883	241	3	None	579.0	8374.0	3.0	seen-within	2	6	186.27	2.98	False	True	186.2616400718689	189.22832012176517	[['b', 187.81194806098938]]	2.0	seen	False	True	1.5419480609893697	2.96668004989624	1.0	41.0	1624478408.1545	False		False	0.0	489.05329990386963	99.0
06	ses-011	43	images_fmri/bunkbed/bunkbed_03s.jpg	seen	1143	96	3	None	223.0	3331.0	3.0	seen-between-within	3	6	190.74	2.98	False	True	190.72815704345703	193.71148109436035	[['b', 191.6410849094391]]	2.0	seen	False	True	0.9010849094390778	2.9833240509033203	1.0	42.0	1624478412.6210	False		False	0.0	98.34730005264282	22.0
06	ses-011	44	images_fmri/dress/dress_03s.jpg	seen	2595	217	3	None	519.0	7529.0	3.0	seen-within	2	6	195.21	2.98	True	True	195.19470310211184	198.17806100845337	[['b', 196.09304404258728]]	2.0	seen	False	True	0.8830440425872723	2.9833579063415527	1.0	43.0	1624478417.0876	False		False	0.0	633.899199962616	123.0
06	ses-011	45	images_fmri/octopus/octopus_03s.jpg	seen	5127	428	3	None	1071.0	15226.0	3.0	seen-between-within	3	6	199.68	2.98	False	True	199.6612730026245	202.64458012580872	[['b', 200.54704594612122]]	2.0	seen	False	True	0.867045946121209	2.983307123184204	1.0	44.0	1624478421.5542	False		False	0.0	102.79719996452332	23.0
06	ses-011	46	images_fmri/chest2/chest2_03s.jpg	seen	1659	139	3	None	321.0	4657.0	3.0	seen-between-within	3	6	204.15	2.98	True	False	204.127779006958	207.111123085022	[['x', 205.02952003479004]]	2.0	seen	False	True	0.8795200347900334	2.983344078063965	1.0	45.0	1624478426.0207	False		False	0.0	323.65779995918274	62.0
06	ses-011	47	images_fmri/crank/crank_03s.jpg	unseen	2127	178	3	None	433.0	6252.0	3.0	unseen-within	1	6	208.62	2.98	True	False	208.61100602149963	211.5776479244232	[['a', 211.23937892913818]]	-2.0	unseen	False	True	2.619378929138179	2.966641902923584	1.0	46.0	1624478430.5039	False		False			
06	ses-011	48	images_fmri/cactus/cactus_03s.jpg	seen	1215	102	3	None	236.0	3508.0	3.0	seen-within	2	6	213.09	2.98	True	False	213.07752799987796	216.06081008911133	[['x', 214.04282593727112]]	2.0	seen	False	True	0.9528259372711148	2.9832820892333984	1.0	47.0	1624478434.9704	False		False	0.0	935.9411001205444	180.0
06	ses-011	49	images_fmri/television/television_03s.jpg	seen	7611	635	3	None	1642.0	23178.0	3.0	seen-within	2	6	217.56	2.98	True	True	217.54423809051517	220.5277180671692	[['b', 219.00602293014526]]	2.0	seen	False	True	1.4460229301452614	2.9834799766540527	1.0	48.0	1624478439.4371	False		False	0.0	102.81399989128113	23.0
06	ses-011	50	images_fmri/tray/tray_03s.jpg	unseen	7959	664	3	None	1706.0	24062.0	3.0	unseen-between	1	6	222.03	2.98	False	False	222.01075100898743	224.99425411224365	[['y', 224.75987005233765]]	-2.0	unseen	False	True	2.7298700523376453	2.9835031032562256	1.0	49.0	1624478443.9036	False		False			
06	ses-011	51	images_fmri/donkey/donkey_03s.jpg	seen	2511	210	3	None	505.0	7295.0	3.0	seen-within-between	3	6	226.5	2.98	False	True	226.4937360286713	229.46049308776853	[['b', 228.44573402404785]]	2.0	seen	False	True	1.945734024047852	2.96675705909729	1.0	50.0	1624478448.3866	False		False	7.0	0.0	664.0
06	ses-011	52	images_fmri/ring/ring_03s.jpg	unseen	6303	526	3	None	1314.0	18699.0	3.0	unseen-between	1	6	230.97	2.98	True	True	230.96037793159485	233.9271140098572	[['a', 233.2900369167328]]	-2.0	unseen	False	True	2.320036916732789	2.966736078262329	1.0	51.0	1624478452.8533	False		False			
06	ses-011	53	images_fmri/blimp/blimp_03n.jpg	seen	735	62	3	None	140.0	2131.0	3.0	seen-between	2	6	235.44	2.98	False	True	235.42691707611084	238.41031312942505	[['y', 238.50134587287903]]	-2.0	unseen	True	True	3.0613458728790306	2.983396053314209	1.0	52.0	1624478457.3198	False		False	7.0	0.0	491.0
06	ses-011	54	images_fmri/crank/crank_03s.jpg	seen	2127	178	3	None	433.0	6252.0	3.0	seen-within	2	6	239.91	2.98	False	False	239.89344596862796	242.8767969608307	[['x', 240.76869702339172]]	2.0	seen	False	True	0.858697023391727	2.983350992202759	1.0	53.0	1624478461.7863	False		False	0.0	31.282399892807007	7.0
06	ses-011	55	images_fmri/blimp/blimp_03n.jpg	seen	735	62	3	None	140.0	2131.0	3.0	seen-between-within	3	6	244.38	2.98	True	True	244.36001110076904	247.34332513809204	[['b', 245.7469699382782]]	2.0	seen	False	True	1.3669699382782028	2.983314037322998	1.0	54.0	1624478466.2529	False		False	0.0	8.93309998512268	2.0
06	ses-011	56	images_fmri/tag/tag_03s.jpg	seen	7527	628	3	None	1617.0	22828.0	3.0	seen-within	2	6	248.85	2.98	True	False	248.84306406974792	251.8098909854889	[['x', 249.87682485580444]]	2.0	seen	False	True	1.026824855804449	2.966826915740967	1.0	55.0	1624478470.7359	False		False	0.0	1337.2799999713898	261.0
06	ses-011	57	images_fmri/footprint/footprint_03s.jpg	seen	3087	258	3	None	633.0	9130.0	3.0	seen-between-within	3	6	253.32	2.98	False	True	253.3097620010376	256.2931129932404	[['b', 254.22965288162231]]	2.0	seen	False	True	0.9096528816223212	2.983350992202759	1.0	56.0	1624478475.2026	False		False	0.0	502.46950006484985	102.0
06	ses-011	58	images_fmri/pepper1/pepper1_03s.jpg	seen	5499	459	3	None	1151.0	16372.0	3.0	seen-within	2	6	257.79	2.98	True	True	257.7762920856476	260.75956201553345	[['b', 258.7046809196472]]	2.0	seen	False	True	0.9146809196471964	2.9832699298858643	1.0	57.0	1624478479.6692	False		False	0.0	254.79299998283386	57.0
06	ses-011	59	images_fmri/peanut/peanut_03s.jpg	seen	5415	452	3	None	1132.0	16116.0	3.0	seen-between-within	3	6	262.26	2.98	True	False	262.2428500652313	265.2261130809784	[['x', 263.11062383651733]]	2.0	seen	False	True	0.8506238365173431	2.9832630157470703	1.0	58.0	1624478484.1357	False		False	0.0	151.97909998893738	34.0
06	ses-011	60	images_fmri/broccoli/broccoli_03s.jpg	unseen	1011	85	3	None	202.0	3050.0	3.0	unseen-between	1	6	266.73	2.98	False	True	266.7093720436096	269.69276094436646	[['y', 268.5336298942566]]	-2.0	unseen	False	True	1.8036298942565736	2.983388900756836	1.0	59.0	1624478488.6023	False		False			
