subject	session	TrialNumber	image_path	condition	image_nr	category_nr	exemplar_nr	test_image_nr	things_category_nr	things_image_nr	things_exemplar_nr	subcondition	repetition	run	onset	duration	response_mapping_flip_h	response_mapping_flip_v	onset_flip	offset_flip	keypresses	response	response_txt	error	response_confidence	response_time	duration_flip	ran	order	session_trial_time	atypical	atypical_log	exclude_session	delay_days	delay_seconds	trials_since_lastrep
06	ses-011	1	images_fmri/sim_card/sim_card_03s.jpg	seen	6783	566	3	None	1447.0	20518.0	3.0	seen-between-within	3	4	3.0	2.98	True	True	2.9829747676849365	5.949594974517822	[['b', 4.138288974761963]]	2.0	seen	False	True	1.138288974761963	2.9666202068328857	1.0	0.0	1624477604.3931	False		False	0.0	217.12739992141724	38.0
06	ses-011	2	images_fmri/curtain/curtain_03s.jpg	seen	2319	194	3	None	466.0	6757.0	3.0	seen-between	2	4	7.47	2.98	False	True	7.449481964111328	10.43273377418518	[['y', 9.48910117149353]]	-2.0	unseen	True	True	2.0191011714935305	2.9832518100738525	1.0	1.0	1624477608.8596	False		False	7.0	0.0	339.0
06	ses-011	3	images_fmri/spider/spider_03s.jpg	seen	7059	589	3	None	1514.0	21407.0	3.0	seen-between	2	4	11.94	2.98	True	True	11.91603398323059	14.89940881729126	[['a', 14.012142181396484]]	-2.0	unseen	True	True	2.072142181396485	2.983374834060669	1.0	2.0	1624477613.3262	False		False	7.0	0.0	298.0
06	ses-011	4	images_fmri/dragonfly/dragonfly_03s.jpg	unseen	2559	214	3	None	515.0	7470.0	3.0	unseen-between	1	4	16.41	2.98	True	False	16.38257884979248	19.365806818008423	[['a', 18.11721110343933]]	-2.0	unseen	False	True	1.707211103439331	2.9832279682159424	1.0	3.0	1624477617.7927	False		False			
06	ses-011	5	images_fmri/jukebox/jukebox_03n.jpg	seen	4047	338	3	None	858.0	12268.0	3.0	seen-within	2	4	20.88	2.98	False	False	20.84911298751831	23.83241295814514	[['x', 21.86615300178528]]	2.0	seen	False	True	0.9861530017852792	2.983299970626831	1.0	4.0	1624477622.2593	False		False	0.0	310.9749000072479	59.0
06	ses-011	6	images_fmri/beaker/beaker_03s.jpg	seen	471	40	3	None	102.0	1530.0	3.0	seen-within-between	3	4	25.35	2.98	True	False	25.33232593536377	28.31594395637512	[['x', 28.16727614402771]]	2.0	seen	False	True	2.8172761440277085	2.9836180210113525	1.0	5.0	1624477626.7425	False		False	7.0	0.0	194.0
06	ses-011	7	images_fmri/anklet/anklet_03s.jpg	unseen	111	10	3	None	24.0	334.0	3.0	unseen-between	1	4	29.82	2.98	False	False	29.799036979675293	32.78232383728027	[['y', 32.543169021606445]]	-2.0	unseen	False	True	2.723169021606445	2.9832868576049805	1.0	6.0	1624477631.2092	False		False			
06	ses-011	8	images_fmri/carrot/carrot_03s.jpg	seen	1443	121	3	None	278.0	4077.0	3.0	seen-within	2	4	34.29	2.98	True	False	34.26545286178589	37.24902296066284	[['x', 35.07252216339111]]	2.0	seen	False	True	0.7825221633911141	2.983570098876953	1.0	7.0	1624477635.6756	False		False	0.0	524.569000005722	98.0
06	ses-011	9	images_fmri/iguana/iguana_03s.jpg	seen	3927	328	3	None	826.0	11804.0	3.0	seen-within	2	4	38.76	2.98	False	True	38.73196196556091	41.71538186073303	[['b', 40.296319007873535]]	2.0	seen	False	True	1.5363190078735371	2.983419895172119	1.0	8.0	1624477640.1421	False		False	0.0	873.5428001880646	166.0
06	ses-011	10	images_fmri/apple/apple_03s.jpg	unseen	183	16	3	None	31.0	436.0	3.0	unseen-between	1	4	43.23	2.98	False	False	43.215181827545166	46.18192887306213	[['y', 45.24005603790283]]	-2.0	unseen	False	True	2.010056037902835	2.966747045516968	1.0	9.0	1624477644.6253	False		False			
06	ses-011	11	images_fmri/boxing_gloves/boxing_gloves_03s.jpg	seen	915	77	3	None	184.0	2786.0	3.0	seen-between	2	4	47.7	2.98	False	True	47.68172693252564	50.66503691673279	[['b', 50.45895195007324]]	2.0	seen	False	True	2.75895195007324	2.9833099842071533	1.0	10.0	1624477649.0919	False		False	7.0	0.0	471.0
06	ses-011	12	images_fmri/water_fountain/water_fountain_03s.jpg	unseen	8379	699	3	None	1791.0	25236.0	3.0	unseen-between	1	4	52.17	2.98	False	False	52.148260831832886	55.13160991668701	[['y', 53.909016132354736]]	-2.0	unseen	False	True	1.7390161323547346	2.983349084854126	1.0	11.0	1624477653.5584	False		False			
06	ses-011	13	images_fmri/mistletoe/mistletoe_03s.jpg	unseen	4827	403	3	None	1008.0	14363.0	3.0	unseen-between	1	4	56.64	2.98	True	False	56.61482286453247	59.59813690185547	[['y', 60.020009994506836]]	1.0	seen	True	False	3.380009994506836	2.983314037322998	1.0	12.0	1624477658.0250	False		False			
06	ses-011	14	images_fmri/knife/knife_03s.jpg	seen	4155	347	3	None	880.0	12593.0	3.0	seen-between	2	4	61.11	2.98	True	True	61.08134579658508	64.06454277038574	[['a', 62.984848976135254]]	-2.0	unseen	True	True	1.8748489761352545	2.983196973800659	1.0	13.0	1624477662.4915	False		False	7.0	0.0	404.0
06	ses-011	15	images_fmri/candle/candle_03n.jpg	unseen	1323	111	3	None	254.0	3745.0	3.0	unseen-within	1	4	65.58	2.98	True	True	65.56460499763489	68.54780888557434	[['a', 66.77716302871704]]	-2.0	unseen	False	True	1.1971630287170427	2.983203887939453	1.0	14.0	1624477666.9748	False		False			
06	ses-011	16	images_fmri/boot/boot_03s.jpg	seen	855	72	3	None	170.0	2582.0	3.0	seen-within-between	3	4	70.05	2.98	True	True	70.0311188697815	73.01426792144775	[['a', 72.69572806358337]]	-2.0	unseen	True	True	2.645728063583377	2.98314905166626	1.0	15.0	1624477671.4413	False		False	7.0	0.0	220.0
06	ses-011	17	images_fmri/necklace/necklace_03s.jpg	unseen	5031	420	3	None	1055.0	15016.0	3.0	unseen-within	1	4	74.52	2.98	True	True	74.49767589569092	77.48140597343445	[['a', 76.40966296195984]]	-2.0	unseen	False	True	1.8896629619598428	2.9837300777435303	1.0	16.0	1624477675.9078	False		False			
06	ses-011	18	images_fmri/slingshot/slingshot_03s.jpg	seen	6843	571	3	None	1468.0	20801.0	3.0	seen-between-within	3	4	78.99	2.98	False	True	78.9642379283905	81.94772791862488	[['b', 80.01971697807312]]	2.0	seen	False	True	1.0297169780731252	2.983489990234375	1.0	17.0	1624477680.3744	False		False	0.0	378.023099899292	74.0
06	ses-011	19	images_fmri/candle/candle_03n.jpg	seen	1323	111	3	None	254.0	3745.0	3.0	seen-within	2	4	83.46	2.98	True	True	83.43122887611389	86.41430997848511	[['b', 84.54577898979187]]	2.0	seen	False	True	1.0857789897918764	2.983081102371216	1.0	18.0	1624477684.8414	False		False	0.0	17.866599798202515	4.0
06	ses-011	20	images_fmri/steamroller/steamroller_03n.jpg	unseen	7215	602	3	None	1546.0	21841.0	3.0	unseen-between	1	4	87.92999999999998	2.98	False	True	87.91395688056946	90.88076996803284	[['y', 90.92308306694031]]	-2.0	unseen	False	True	2.993083066940329	2.966813087463379	1.0	19.0	1624477689.3241	False		False			
06	ses-011	21	images_fmri/bee/bee_03s.jpg	seen	531	45	3	None	112.0	1697.0	3.0	seen-between	2	4	92.4	2.98	True	True	92.38050699234007	95.36395978927612	[['a', 94.13874697685242]]	-2.0	unseen	True	True	1.7387469768524113	2.983452796936035	1.0	20.0	1624477693.7907	False		False	7.0	0.0	520.0
06	ses-011	22	images_fmri/chair/chair_03s.jpg	seen	1539	129	3	None	301.0	4385.0	3.0	seen-within-between	3	4	96.87	2.98	False	True	96.84704780578612	99.83039784431458	[['b', 98.50757813453674]]	2.0	seen	False	True	1.6375781345367386	2.9833500385284424	1.0	21.0	1624477698.2572	False		False	7.0	0.0	320.0
06	ses-011	23	images_fmri/walrus/walrus_03s.jpg	seen	8307	693	3	None	1780.0	25092.0	3.0	seen-between	2	4	101.34	2.98	False	False	101.31359386444092	104.29693078994752	[['y', 104.53382396697998]]	-2.0	unseen	True	True	3.193823966979977	2.983336925506592	1.0	22.0	1624477702.7238	False		False	7.0	0.0	422.0
06	ses-011	24	images_fmri/pretzel/pretzel_03s.jpg	seen	5943	496	3	None	1240.0	17638.0	3.0	seen-within	2	4	105.81	2.98	False	True	105.79682898521423	108.76346778869627	[['b', 106.80046010017395]]	2.0	seen	False	True	0.990460100173948	2.966638803482056	1.0	23.0	1624477707.2070	False		False	0.0	310.99149990081787	59.0
06	ses-011	25	images_fmri/tortilla/tortilla_03s.jpg	unseen	7851	655	3	None	1688.0	23816.0	3.0	unseen-within	1	4	110.28	2.98	False	True	110.26337099075316	113.22999787330627	[['y', 111.88744306564331]]	-2.0	unseen	False	True	1.6074430656433094	2.9666268825531006	1.0	24.0	1624477711.6735	False		False			
06	ses-011	26	images_fmri/hippopotamus/hippopotamus_03s.jpg	seen	3783	316	3	None	782.0	11186.0	3.0	seen-within-between	3	4	114.75	2.98	False	True	114.7298867702484	117.7132158279419	[['y', 116.43841505050659]]	-2.0	unseen	True	True	1.6884150505065918	2.983329057693481	1.0	25.0	1624477716.1401	False		False	7.0	0.0	446.0
06	ses-011	27	images_fmri/toucan/toucan_03s.jpg	seen	7863	656	3	None	1691.0	23856.0	3.0	seen-between-within	3	4	119.22	2.98	True	False	119.19644594192503	122.179682970047	[['x', 120.32948517799377]]	2.0	seen	False	True	1.1094851779937756	2.983237028121948	1.0	26.0	1624477720.6066	False		False	0.0	270.759299993515	50.0
06	ses-011	28	images_fmri/candy_bar/candy_bar_03s.jpg	seen	1347	113	3	None	257.0	3784.0	3.0	seen-within-between	3	4	123.69	2.98	False	False	123.66298580169678	126.64606285095216	[['x', 125.33555102348328]]	2.0	seen	False	True	1.6455510234832786	2.983077049255371	1.0	27.0	1624477725.0731	False		False	7.0	0.0	249.0
06	ses-011	29	images_fmri/hovercraft/hovercraft_03s.jpg	unseen	3879	324	3	None	809.0	11565.0	3.0	unseen-within	1	4	128.16	2.98	True	True	128.12976789474487	131.11324882507324	[['a', 130.55055904388428]]	-2.0	unseen	False	True	2.3905590438842808	2.983480930328369	1.0	28.0	1624477729.5399	False		False			
06	ses-011	30	images_fmri/windowsill/windowsill_03s.jpg	seen	8487	708	3	None	1820.0	25622.0	3.0	seen-within-between	3	4	132.63	2.98	True	True	132.6128408908844	135.57972884178162	[['b', 135.81328296661377]]	2.0	seen	False	True	3.183282966613774	2.966887950897217	1.0	29.0	1624477734.0230	False		False	7.0	0.0	300.0
06	ses-011	31	images_fmri/rifle/rifle_03n.jpg	seen	6291	525	3	None	1312.0	18674.0	3.0	seen-within-between	3	4	137.1	2.98	False	False	137.07927989959717	140.06278896331787	[['x', 139.59064507484436]]	2.0	seen	False	True	2.490645074844366	2.983509063720703	1.0	30.0	1624477738.4894	False		False	7.0	0.0	519.0
06	ses-011	32	images_fmri/sleeping_bag/sleeping_bag_03s.jpg	seen	6831	570	3	None	1463.0	20735.0	3.0	seen-between	2	4	141.57	2.98	False	False	141.5457170009613	144.52916479110718	[['y', 143.18636918067932]]	-2.0	unseen	True	True	1.616369180679328	2.983447790145874	1.0	31.0	1624477742.9559	False		False	7.0	0.0	542.0
06	ses-011	33	images_fmri/tortilla/tortilla_03s.jpg	seen	7851	655	3	None	1688.0	23816.0	3.0	seen-within	2	4	146.04	2.98	False	False	146.01241183280945	148.9958298206329	[['x', 146.90073609352112]]	2.0	seen	False	True	0.8607360935211261	2.9834179878234863	1.0	32.0	1624477747.4226	False		False	0.0	35.74909996986389	8.0
06	ses-011	34	images_fmri/smoke_alarm/smoke_alarm_03s.jpg	unseen	6867	573	3	None	1474.0	20879.0	3.0	unseen-within	1	4	150.51	2.98	False	False	150.478768825531	153.46228289604187	[['y', 152.34316611289978]]	-2.0	unseen	False	True	1.8331661128997891	2.9835140705108643	1.0	33.0	1624477751.8889	False		False			
06	ses-011	35	images_fmri/coffin/coffin_03s.jpg	unseen	1899	159	3	None	384.0	5528.0	3.0	unseen-within	1	4	154.98	2.98	False	False	154.96212482452393	157.94549798965454	[['y', 157.00408911705017]]	-2.0	unseen	False	True	2.024089117050181	2.9833731651306152	1.0	34.0	1624477756.3723	False		False			
06	ses-011	36	images_fmri/thermometer/thermometer_03s.jpg	seen	7635	637	3	None	1647.0	23255.0	3.0	seen-between-within	3	4	159.45	2.98	False	True	159.42866897583008	162.41196990013125	[['b', 160.6642940044403]]	2.0	seen	False	True	1.214294004440319	2.9833009243011475	1.0	35.0	1624477760.8388	False		False	0.0	462.9707000255585	93.0
06	ses-011	37	images_fmri/trowel/trowel_03s.jpg	seen	8007	668	3	None	1720.0	24245.0	3.0	seen-within-between	3	4	163.92	2.98	False	True	163.89522099494934	166.8785719871521	[['b', 165.07122802734375]]	2.0	seen	False	True	1.1512280273437625	2.983350992202759	1.0	36.0	1624477765.3054	False		False	7.0	0.0	256.0
06	ses-011	38	images_fmri/spider/spider_03s.jpg	seen	7059	589	3	None	1514.0	21407.0	3.0	seen-between-within	3	4	168.39	2.98	False	False	168.36175894737244	171.34502696990967	[['x', 169.29723000526428]]	2.0	seen	False	True	0.907230005264296	2.9832680225372314	1.0	37.0	1624477769.7719	False		False	0.0	156.44569993019104	35.0
06	ses-011	39	images_fmri/match/match_03s.jpg	unseen	4695	392	3	None	984.0	14022.0	3.0	unseen-between	1	4	172.86	2.98	False	False	172.84498190879822	175.82821679115295	[['y', 174.89503002166748]]	-2.0	unseen	False	True	2.035030021667467	2.9832348823547363	1.0	38.0	1624477774.2551	False		False			
06	ses-011	40	images_fmri/pomegranate/pomegranate_03s.jpg	seen	5811	485	3	None	1220.0	17355.0	3.0	seen-within-between	3	4	177.32999999999996	2.98	True	True	177.31151294708252	180.29512000083923	[['b', 179.41089510917664]]	2.0	seen	False	True	2.08089510917668	2.983607053756714	1.0	39.0	1624477778.7217	False		False	7.0	0.0	285.0
06	ses-011	41	images_fmri/dress/dress_03s.jpg	unseen	2595	217	3	None	519.0	7529.0	3.0	unseen-within	1	4	181.8	2.98	False	False	181.7782688140869	184.7615118026733	[['y', 183.83785200119019]]	-2.0	unseen	False	True	2.037852001190174	2.983242988586426	1.0	40.0	1624477783.1884	False		False			
06	ses-011	42	images_fmri/napkin_ring/napkin_ring_03s.jpg	seen	5019	419	3	None	1052.0	14976.0	3.0	seen-between	2	4	186.27	2.98	True	False	186.2445948123932	189.22820496559143	[['a', 188.78295612335205]]	-2.0	unseen	True	True	2.5129561233520405	2.983610153198242	1.0	41.0	1624477787.6548	False		False	7.0	0.0	507.0
06	ses-011	43	images_fmri/hovercraft/hovercraft_03s.jpg	seen	3879	324	3	None	809.0	11565.0	3.0	seen-within	2	4	190.74	2.98	True	False	190.7111339569092	193.69463276863095	[['x', 191.5929410457611]]	2.0	seen	False	True	0.8529410457610993	2.9834988117218018	1.0	42.0	1624477792.1213	False		False	0.0	62.58139991760254	14.0
06	ses-011	44	images_fmri/candelabra/candelabra_03s.jpg	seen	1311	110	3	None	253.0	3728.0	3.0	seen-between	2	4	195.21	2.98	True	True	195.19436597824097	198.16116380691528	[['b', 197.12095713615417]]	2.0	seen	False	True	1.9109571361541668	2.9667978286743164	1.0	43.0	1624477796.6045	False		False	7.0	0.0	335.0
06	ses-011	45	images_fmri/wallpaper/wallpaper_03s.jpg	seen	8283	691	3	None	1778.0	25063.0	3.0	seen-within	2	4	199.68	2.98	True	False	199.66090893745425	202.64425587654117	[['x', 200.6228470802307]]	2.0	seen	False	True	0.942847080230706	2.983346939086914	1.0	44.0	1624477801.0711	False		False	0.0	1003.1893999576569	195.0
06	ses-011	46	images_fmri/sprinkler/sprinkler_03s.jpg	unseen	7107	593	3	None	1524.0	21543.0	3.0	unseen-between	1	4	204.15	2.98	True	True	204.127454996109	207.11078190803528	[['a', 205.61371612548828]]	-2.0	unseen	False	True	1.4637161254882756	2.983326911926269	1.0	45.0	1624477805.5376	False		False			
06	ses-011	47	images_fmri/submarine/submarine_03s.jpg	unseen	7311	610	3	None	1578.0	22282.0	3.0	unseen-between	1	4	208.62	2.98	False	False	208.5940408706665	211.57732582092285	[['y', 211.29897904396057]]	-2.0	unseen	False	True	2.6789790439605667	2.983284950256348	1.0	46.0	1624477810.0042	False		False			
06	ses-011	48	images_fmri/pocket/pocket_03s.jpg	unseen	5751	480	3	None	1206.0	17133.0	3.0	unseen-within	1	4	213.09	2.98	True	False	213.06054091453552	216.0438687801361	[['a', 215.20060515403748]]	-2.0	unseen	False	True	2.110605154037472	2.983327865600586	1.0	47.0	1624477814.4707	False		False			
06	ses-011	49	images_fmri/tomato/tomato_03s.jpg	seen	7791	650	3	None	1673.0	23616.0	3.0	seen-within-between	3	4	217.56	2.98	True	True	217.54377484321597	220.51033997535703	[['a', 218.89785408973694]]	-2.0	unseen	True	True	1.3378540897369362	2.9665651321411133	1.0	48.0	1624477818.9539	False		False	7.0	0.0	350.0
06	ses-011	50	images_fmri/binoculars/binoculars_03s.jpg	unseen	627	53	3	None	128.0	1961.0	3.0	unseen-between	1	4	222.03	2.98	True	False	222.01033782958984	224.993558883667	[['b', 225.22782015800476]]	-1.0	unseen	False	False	3.19782015800476	2.9832210540771484	1.0	49.0	1624477823.4205	False		False			
06	ses-011	51	images_fmri/napkin_ring/napkin_ring_03s.jpg	seen	5019	419	3	None	1052.0	14976.0	3.0	seen-between-within	3	4	226.5	2.98	True	True	226.4768419265747	229.46060180664065	[['b', 227.6010820865631]]	2.0	seen	False	True	1.1010820865631104	2.983759880065918	1.0	50.0	1624477827.8870	False		False	0.0	40.232200145721436	9.0
06	ses-011	52	images_fmri/gargoyle/gargoyle_03s.jpg	unseen	3171	265	3	None	658.0	9448.0	3.0	unseen-within	1	4	230.97	2.98	False	True	230.94339084625244	233.92691087722775	[['b', 232.9405460357666]]	2.0	seen	True	True	1.9705460357666027	2.983520030975342	1.0	51.0	1624477832.3536	False		False			
06	ses-011	53	images_fmri/uniform/uniform_03s.jpg	seen	8139	679	3	None	1748.0	24631.0	3.0	seen-between	2	4	235.44	2.98	True	False	235.4104208946228	238.39348077774048	[['x', 237.69245195388794]]	2.0	seen	False	True	2.2524519538879417	2.983059883117676	1.0	52.0	1624477836.8206	False		False	7.0	0.0	430.0
06	ses-011	54	images_fmri/teapot/teapot_03s.jpg	seen	7587	633	3	None	1635.0	23091.0	3.0	seen-between-within	3	4	239.91	2.98	True	True	239.8931357860565	242.8599219322205	[['b', 240.8617720603943]]	2.0	seen	False	True	0.9517720603942904	2.9667861461639404	1.0	53.0	1624477841.3033	False		False	0.0	1159.6351997852325	230.0
06	ses-011	55	images_fmri/cabbage/cabbage_03s.jpg	seen	1203	101	3	None	233.0	3469.0	3.0	seen-between-within	3	4	244.38	2.98	True	True	244.35969376564023	247.34309887886047	[['b', 245.34559202194214]]	2.0	seen	False	True	0.9655920219421432	2.983405113220215	1.0	54.0	1624477845.7699	False		False	0.0	779.3621001243591	155.0
06	ses-011	56	images_fmri/uniform/uniform_03s.jpg	seen	8139	679	3	None	1748.0	24631.0	3.0	seen-between-within	3	4	248.85	2.98	True	True	248.82631182670596	251.8095819950104	[['b', 250.4786570072174]]	2.0	seen	False	True	1.628657007217413	2.983270168304444	1.0	55.0	1624477850.2365	False		False	0.0	13.415899991989136	3.0
06	ses-011	57	images_fmri/candelabra/candelabra_03s.jpg	seen	1311	110	3	None	253.0	3728.0	3.0	seen-between-within	3	4	253.32	2.98	False	False	253.29281091690063	256.276184797287	[['x', 254.31844806671143]]	2.0	seen	False	True	0.9984480667114326	2.9833738803863525	1.0	56.0	1624477854.7030	False		False	0.0	58.09850001335144	13.0
06	ses-011	58	images_fmri/scoreboard/scoreboard_03s.jpg	unseen	6531	545	3	None	1384.0	19653.0	3.0	unseen-within	1	4	257.79	2.98	True	False	257.7593319416046	260.7426037788391	[['a', 260.57159209251404]]	-2.0	unseen	False	True	2.7815920925140176	2.983271837234497	1.0	57.0	1624477859.1695	False		False			
06	ses-011	59	images_fmri/necklace/necklace_03s.jpg	seen	5031	420	3	None	1055.0	15016.0	3.0	seen-within	2	4	262.26	2.98	False	False	262.2425627708435	265.2091557979584	[['x', 263.12956500053406]]	2.0	seen	False	True	0.8695650005340667	2.966593027114868	1.0	58.0	1624477863.6527	False		False	0.0	187.74489998817444	42.0
06	ses-011	60	images_fmri/pocket/pocket_03s.jpg	seen	5751	480	3	None	1206.0	17133.0	3.0	seen-within	2	4	266.73	2.98	False	False	266.70910382270813	269.69233679771423	[['x', 267.51363611221313]]	2.0	seen	False	True	0.7836361122131166	2.9832329750061035	1.0	59.0	1624477868.1193	False		False	0.0	53.64859986305237	12.0
