subject	session	TrialNumber	image_path	condition	image_nr	category_nr	exemplar_nr	test_image_nr	things_category_nr	things_image_nr	things_exemplar_nr	subcondition	repetition	run	onset	duration	response_mapping_flip_h	response_mapping_flip_v	onset_flip	offset_flip	keypresses	response	response_txt	error	response_confidence	response_time	duration_flip	ran	order	session_trial_time	atypical	atypical_log	exclude_session	delay_days	delay_seconds	trials_since_lastrep
03	ses-035	1	images_fmri/cheetah/cheetah_01b.jpg	unseen	1609	135	1	None	316.0	4591.0	1.0	unseen-within	1	4	3.0	2.98	False	True	3.0011032730108127	5.98153700097464	[['y', 4.7799530640477315]]	-2.0	unseen	False	True	1.7799530640477317	2.980433727963828	1.0	0.0	787406.3826486178	False		False			
03	ses-035	2	images_fmri/raft/raft_01b.jpg	seen	6109	510	1	None	1276.0	18172.0	1.0	seen-within-between	3	4	7.47	2.98	True	True	7.468282043002546	10.447156955022365	[['x', 8.76914366800338]]	-1.0	unseen	True	False	1.2991436680033803	2.978874912019819	1.0	1.0	787410.8526486178	False		False	7.0	0.0	427.0
03	ses-035	3	images_fmri/glass/glass_01b.jpg	unseen	3265	273	1	None	678.0	9708.0	1.0	unseen-between	1	4	11.94	2.98	True	True	11.9350213840371	14.914053922984747	[['a', 13.023607189999893]]	-2.0	unseen	False	True	1.0836071899998938	2.9790325389476493	1.0	2.0	787415.3226486178	False		False			
03	ses-035	4	images_fmri/sleeping_bag/sleeping_bag_01b.jpg	seen	6829	570	1	None	1463.0	20733.0	1.0	seen-within-between	3	4	16.41	2.98	True	False	16.416543785016984	19.37942601705436	[['a', 17.73618735896889]]	-2.0	unseen	True	True	1.326187358968891	2.962882232037373	1.0	3.0	787419.7926486179	False		False	7.0	0.0	260.0
03	ses-035	5	images_fmri/brace/brace_01b.jpg	seen	937	79	1	None	187.0	2826.0	1.0	seen-within-between	3	4	20.88	2.98	False	False	20.88047864101827	23.863909948966462	[['y', 21.912229369045235], ['b', 22.611212695017457], ['a', 23.009326820028946]]	-2.0	unseen	True	True	1.0322293690452362	2.9834313079481944	1.0	4.0	787424.2626486178	False		False	7.0	0.0	267.0
03	ses-035	6	images_fmri/nest/nest_01b.jpg	seen	5053	422	1	None	1057.0	15041.0	1.0	seen-between-within	3	4	25.35	2.98	True	False	25.347030863980763	28.329461558023468	[['x', 26.650180174037814]]	2.0	seen	False	True	1.3001801740378127	2.982430694042705	1.0	5.0	787428.7326486178	False		False	0.0	1051.447923000087	168.0
03	ses-035	7	images_fmri/cow/cow_01b.jpg	seen	2101	176	1	None	427.0	6150.0	1.0	seen-within-between	3	4	29.82	2.98	True	True	29.817910162033517	32.79632252804004	[['a', 31.249216909054667]]	-2.0	unseen	True	True	1.4292169090546665	2.978412366006524	1.0	6.0	787433.2026486178	False		False	7.0	0.0	196.0
03	ses-035	8	images_fmri/tamale/tamale_01b.jpg	unseen	7549	630	1	None	1619.0	22855.0	1.0	unseen-within	1	4	34.29	2.98	True	True	34.27977650298271	37.26243200106546	[['x', 36.46730566502083]]	-1.0	unseen	False	False	2.177305665020832	2.982655498082749	1.0	7.0	787437.6726486179	False		False			
03	ses-035	9	images_fmri/telescope/telescope_01b.jpg	seen	7597	634	1	None	1641.0	23163.0	1.0	seen-between	2	4	38.76	2.98	False	True	38.76692024606746	41.72884629108012	[['y', 40.515098951989785]]	-2.0	unseen	True	True	1.7550989519897868	2.9619260450126603	1.0	8.0	787442.1426486179	False		False	7.0	0.0	301.0
03	ses-035	10	images_fmri/chandelier/chandelier_01b.jpg	unseen	1585	133	1	None	306.0	4454.0	1.0	unseen-between	1	4	43.23	2.98	True	True	43.23274627607316	46.21252894005738	[['a', 44.49611831002403]]	-2.0	unseen	False	True	1.2661183100240336	2.979782663984224	1.0	9.0	787446.6126486178	False		False			
03	ses-035	11	images_fmri/jam/jam_01b.jpg	seen	3973	332	1	None	840.0	12005.0	1.0	seen-between-within	3	4	47.7	2.98	False	False	47.69716720003635	50.682744038058445	[['x', 48.730761807993986]]	2.0	seen	False	True	1.0307618079939829	2.985576838022098	1.0	10.0	787451.0826486178	False		False	0.0	1082.7379230000079	175.0
03	ses-035	12	images_fmri/spareribs/spareribs_01b.jpg	seen	7021	586	1	None	1506.0	21297.0	1.0	seen-within-between	3	4	52.17	2.98	False	True	52.16708269307856	55.146018896019086	[['x', 54.56417942303233]]	-1.0	unseen	True	False	2.394179423032327	2.978936202940531	1.0	11.0	787455.5526486179	False		False	7.0	0.0	352.0
03	ses-035	13	images_fmri/diaper/diaper_01b.jpg	unseen	2389	200	1	None	486.0	7027.0	1.0	unseen-within	1	4	56.64	2.98	False	False	56.63367319200188	59.61199886898976	[['y', 57.94434559205547], ['b', 59.17387226596475]]	-2.0	unseen	False	True	1.3043455920554692	2.978325676987879	1.0	12.0	787460.0226486179	False		False			
03	ses-035	14	images_fmri/tree_trunk/tree_trunk_01b.jpg	seen	7993	667	1	None	1710.0	24114.0	1.0	seen-between-within	3	4	61.11	2.98	True	False	61.11695386504289	64.07835476298351	[['a', 62.24902360502165], ['b', 63.510079307015985]]	-2.0	unseen	True	True	1.139023605021649	2.961400897940621	1.0	13.0	787464.4926486178	False		False	0.0	283.53211200004444	42.0
03	ses-035	15	images_fmri/bell/bell_01b.jpg	seen	577	49	1	None	117.0	1781.0	1.0	seen-between	2	4	65.58	2.98	False	True	65.58265433006454	68.56227208499331	[['y', 67.97604207496624]]	-2.0	unseen	True	True	2.396042074966246	2.979617754928768	1.0	14.0	787468.9626486178	False		False	7.0	0.0	402.0
03	ses-035	16	images_fmri/tablecloth/tablecloth_01b.jpg	unseen	7489	625	1	None	1610.0	22737.0	1.0	unseen-within	1	4	70.05	2.98	False	False	70.04573356406763	73.02913212904241	[['y', 71.88494565698784]]	-2.0	unseen	False	True	1.8349456569878413	2.9833985649747774	1.0	15.0	787473.4326486179	False		False			
03	ses-035	17	images_fmri/hammer/hammer_01b.jpg	seen	3589	300	1	None	742.0	10631.0	1.0	seen-between	2	4	74.52	2.98	False	True	74.51602306996938	77.49610451597255	[['y', 76.08083525905386]]	-2.0	unseen	True	True	1.56083525905386	2.980081446003169	1.0	16.0	787477.9026486179	False		False	7.0	0.0	311.0
03	ses-035	18	images_fmri/pickle/pickle_01b.jpg	seen	5545	463	1	None	1168.0	16611.0	1.0	seen-within	2	4	78.99	2.98	True	False	78.97886621498037	81.96367648406886	[['x', 79.9869307250483]]	2.0	seen	False	True	0.9969307250483012	2.9848102690884843	1.0	17.0	787482.3726486178	False		False	0.0	783.8529929860961	132.0
03	ses-035	19	images_fmri/backpack/backpack_01b.jpg	unseen	277	24	1	None	50.0	709.0	1.0	unseen-within	1	4	83.46	2.98	True	False	83.46507038606796	86.42768166202586	[['a', 86.0676969360793]]	-2.0	unseen	False	True	2.607696936079307	2.9626112759578973	1.0	18.0	787486.8426486178	False		False			
03	ses-035	20	images_fmri/coat/coat_01b.jpg	seen	1837	154	1	None	370.0	5336.0	1.0	seen-within-between	3	4	87.92999999999998	2.98	False	False	87.92840333201457	90.91188437701204	[['y', 88.94469991407823]]	-2.0	unseen	True	True	1.0146999140782498	2.983481044997461	1.0	19.0	787491.3126486179	False		False	7.0	0.0	269.0
03	ses-035	21	images_fmri/table/table_01b.jpg	unseen	7477	624	1	None	1609.0	22725.0	1.0	unseen-between	1	4	92.4	2.98	True	True	92.39520361705218	95.37901391705964	[['a', 94.03256508999038]]	-2.0	unseen	False	True	1.6325650899903792	2.9838103000074625	1.0	20.0	787495.7826486179	False		False			
03	ses-035	22	images_fmri/cassette/cassette_01b.jpg	unseen	1465	123	1	None	284.0	4150.0	1.0	unseen-between	1	4	96.87	2.98	True	False	96.86188880703412	99.84407433401792	[['a', 98.42813165998086]]	-2.0	unseen	False	True	1.5581316599808588	2.9821855269838125	1.0	21.0	787500.2526486178	False		False			
03	ses-035	23	images_fmri/guitar/guitar_01b.jpg	unseen	3529	295	1	None	724.0	10382.0	1.0	unseen-between	1	4	101.34	2.98	False	True	101.32852515298872	104.31601010507438	[['y', 102.29781160200946]]	-2.0	unseen	False	True	0.9578116020094568	2.9874849520856515	1.0	22.0	787504.7226486178	False		False			
03	ses-035	24	images_fmri/diaper/diaper_01b.jpg	seen	2389	200	1	None	486.0	7027.0	1.0	seen-within	2	4	105.81	2.98	True	True	105.81473832204938	108.78184910397977	[['b', 106.76103129901458]]	2.0	seen	False	True	0.9510312990145736	2.967110781930387	1.0	23.0	787509.1926486179	False		False	0.0	49.17000000004191	11.0
03	ses-035	25	images_fmri/taco/taco_01b.jpg	seen	7501	626	1	None	1614.0	22788.0	1.0	seen-within	2	4	110.28	2.98	True	True	110.28231330798008	113.26140309299808	[['y', 112.9968561650021], ['b', 114.22657791897655]]	1.0	seen	False	False	2.716856165002099	2.9790897850180045	1.0	24.0	787513.6626486179	False		False	0.0	1073.7979230001802	173.0
03	ses-035	26	images_fmri/backpack/backpack_01b.jpg	seen	277	24	1	None	50.0	709.0	1.0	seen-within	2	4	114.75	2.98	False	True	114.74476916599087	117.73113962705249	[['b', 115.60457820701413]]	2.0	seen	False	True	0.8545782070141286	2.986370461061597	1.0	25.0	787518.1326486178	False		False	0.0	31.290000000037253	7.0
03	ses-035	27	images_fmri/sundae/sundae_01b.jpg	unseen	7345	613	1	None	1583.0	22348.0	1.0	unseen-within	1	4	119.22	2.98	True	False	119.21442740305793	122.19677546597086	[['a', 120.2746440829942]]	-2.0	unseen	False	True	1.0546440829942014	2.982348062912933	1.0	26.0	787522.6026486178	False		False			
03	ses-035	28	images_fmri/paint/paint_01b.jpg	seen	5245	438	1	None	1097.0	15615.0	1.0	seen-between	2	4	123.69	2.98	False	False	123.6777052830439	126.664671430015	[['y', 124.85758400603663]]	-2.0	unseen	True	True	1.167584006036634	2.986966146971099	1.0	27.0	787527.0726486178	False		False	7.0	0.0	473.0
03	ses-035	29	images_fmri/donut/donut_01b.jpg	seen	2521	211	1	None	506.0	7310.0	1.0	seen-between	2	4	128.16	2.98	False	False	128.16570700507145	131.12647268304136	[['y', 129.67082308407407]]	-2.0	unseen	True	True	1.510823084074076	2.9607656779699028	1.0	28.0	787531.5426486179	False		False	7.0	0.0	271.0
03	ses-035	30	images_fmri/seagull/seagull_01b.jpg	seen	6577	549	1	None	1396.0	19823.0	1.0	seen-between	2	4	132.63	2.98	False	True	132.63192199007608	135.61125140707009	[['x', 134.37677601200994], ['y', 134.83032717497554]]	-1.0	unseen	True	False	1.7467760120099456	2.979329416994005	1.0	29.0	787536.0126486178	False		False	7.0	0.0	261.0
03	ses-035	31	images_fmri/scorpion/scorpion_01b.jpg	unseen	6541	546	1	None	1385.0	19664.0	1.0	unseen-within	1	4	137.1	2.98	True	True	137.09729921002872	140.08084260404576	[['a', 140.2926732019987]]	-2.0	unseen	False	True	3.1926732019987014	2.9835433940170333	1.0	30.0	787540.4826486178	False		False			
03	ses-035	32	images_fmri/goat/goat_01b.jpg	seen	3301	276	1	None	685.0	9802.0	1.0	seen-within-between	3	4	141.57	2.98	False	False	141.55957017897163	144.5432833840605	[['y', 143.16795835096855]]	-2.0	unseen	True	True	1.597958350968554	2.9837132050888613	1.0	31.0	787544.9526486178	False		False	7.0	0.0	330.0
03	ses-035	33	images_fmri/shredder/shredder_01b.jpg	unseen	6733	562	1	None	1438.0	20387.0	1.0	unseen-between	1	4	146.04	2.98	False	False	146.04594308696687	149.01057069201488	[['y', 147.67292282299604]]	-2.0	unseen	False	True	1.6329228229960506	2.9646276050480083	1.0	32.0	787549.4226486179	False		False			
03	ses-035	34	images_fmri/garbage/garbage_01b.jpg	unseen	3157	264	1	None	656.0	9419.0	1.0	unseen-within	1	4	150.51	2.98	True	True	150.51327692798804	153.4940576130757	[['a', 152.75874432106502]]	-2.0	unseen	False	True	2.2487443210650326	2.980780685087666	1.0	33.0	787553.8926486179	False		False			
03	ses-035	35	images_fmri/thermos/thermos_01b.jpg	seen	7645	638	1	None	1648.0	23265.0	1.0	seen-between-within	3	4	154.98	2.98	True	True	154.97963251604233	157.962469495018	[['b', 155.9252068849746]]	2.0	seen	False	True	0.945206884974624	2.9828369789756835	1.0	34.0	787558.3626486178	False		False	0.0	305.88211200002115	47.0
03	ses-035	36	images_fmri/typewriter/typewriter_01b.jpg	seen	8089	675	1	None	1742.0	24547.0	1.0	seen-between	2	4	159.45	2.98	True	True	159.44347415899392	162.42668784607667	[['a', 161.4704968460137]]	-2.0	unseen	True	True	2.020496846013714	2.9832136870827526	1.0	35.0	787562.8326486178	False		False	7.0	0.0	413.0
03	ses-035	37	images_fmri/monkey/monkey_01b.jpg	seen	4849	405	1	None	1018.0	14497.0	1.0	seen-between	2	4	163.92	2.98	False	False	163.91479375900235	166.8922492840793	[['y', 165.82853339298163]]	-2.0	unseen	True	True	1.9085333929816384	2.977455525076948	1.0	36.0	787567.3026486179	False		False	7.0	0.0	278.0
03	ses-035	38	images_fmri/crank/crank_01b.jpg	unseen	2125	178	1	None	433.0	6250.0	1.0	unseen-within	1	4	168.39	2.98	False	True	168.39671872206964	171.35905279696453	[['y', 170.02330453007016]]	-2.0	unseen	False	True	1.633304530070177	2.9623340748948976	1.0	37.0	787571.7726486179	False		False			
03	ses-035	39	images_fmri/birdhouse/birdhouse_01b.jpg	seen	661	56	1	None	132.0	2021.0	1.0	seen-between-within	3	4	172.86	2.98	False	True	172.86267996998504	175.8422208870761	[['b', 174.23202951299027]]	2.0	seen	False	True	1.3720295129902524	2.979540917091072	1.0	38.0	787576.2426486178	False		False	0.0	390.81211199995596	66.0
03	ses-035	40	images_fmri/seagull/seagull_01b.jpg	seen	6577	549	1	None	1396.0	19823.0	1.0	seen-between-within	3	4	177.32999999999996	2.98	False	False	177.3269599879859	180.310891250032	[['x', 178.1909512380371]]	2.0	seen	False	True	0.8609512380371314	2.9839312620460987	1.0	39.0	787580.7126486178	False		False	0.0	44.699999999953434	10.0
03	ses-035	41	images_fmri/popsicle/popsicle_01b.jpg	seen	5833	487	1	None	1226.0	17441.0	1.0	seen-within	2	4	181.8	2.98	True	False	181.79655158496465	184.77950643200893	[['x', 182.74709357507527]]	2.0	seen	False	True	0.9470935750752574	2.9829548470443115	1.0	40.0	787585.1826486179	False		False	0.0	319.29211200005375	50.0
03	ses-035	42	images_fmri/firetruck/firetruck_01b.jpg	unseen	2941	246	1	None	597.0	8626.0	1.0	unseen-between	1	4	186.27	2.98	False	False	186.26444659405388	189.24234225798864	[['y', 188.39482699497603]]	-2.0	unseen	False	True	2.1248269949760186	2.97789566393476	1.0	41.0	787589.6526486179	False		False			
03	ses-035	43	images_fmri/piano/piano_01b.jpg	seen	5533	462	1	None	1166.0	16586.0	1.0	seen-between-within	3	4	190.74	2.98	False	False	190.742345669074	193.7115664969897	[['x', 191.60107212804724]]	2.0	seen	False	True	0.8610721280472262	2.9692208279157057	1.0	42.0	787594.1226486178	False		False	0.0	332.70211199996993	53.0
03	ses-035	44	images_fmri/tiramisu/tiramisu_01b.jpg	seen	7729	645	1	None	1664.0	23480.0	1.0	seen-within	2	4	195.21	2.98	True	True	195.21393342898227	198.1918792320648	[['b', 197.47943670803215]]	2.0	seen	False	True	2.2694367080321456	2.977945803082548	1.0	43.0	787598.5926486178	False		False	0.0	698.9229929860448	113.0
03	ses-035	45	images_fmri/wrapping_paper/wrapping_paper_01b.jpg	seen	8581	716	1	None	1839.0	25889.0	1.0	seen-between	2	4	199.68	2.98	True	False	199.67941250407603	202.65983559505548	[['a', 200.87615984596778]]	-2.0	unseen	True	True	1.1961598459677705	2.980423090979457	1.0	44.0	787603.0626486179	False		False	7.0	0.0	351.0
03	ses-035	46	images_fmri/silverware/silverware_01b.jpg	seen	6769	565	1	None	1446.0	20503.0	1.0	seen-between-within	3	4	204.15	2.98	False	True	204.1431036570575	207.1290252649924	[['b', 205.05295785306953]]	2.0	seen	False	True	0.9029578530695233	2.98592160793487	1.0	45.0	787607.5326486179	False		False	0.0	877.7229929860914	153.0
03	ses-035	47	images_fmri/cane/cane_01s.jpg	seen	1357	114	1	None	259.0	3806.0	1.0	seen-within-between	3	4	208.62	2.98	True	False	208.6131988890702	211.5911041200161	[['b', 211.39468076906633], ['a', 211.85139345598873]]	-1.0	unseen	True	False	2.7746807690663218	2.9779052309459075	1.0	46.0	787612.0026486178	False		False	7.0	0.0	270.0
03	ses-035	48	images_fmri/wire/wire_01s.jpg	seen	8509	710	1	None	1829.0	25756.0	1.0	seen-within	2	4	213.09	2.98	False	True	213.0926316260593	216.0629482109798	[['b', 213.95510271703824]]	2.0	seen	False	True	0.8651027170382406	2.97031658492051	1.0	47.0	787616.4726486178	False		False	0.0	752.5629929860588	125.0
03	ses-035	49	images_fmri/punching_bag/punching_bag_01b.jpg	unseen	6025	503	1	None	1257.0	17902.0	1.0	unseen-between	1	4	217.56	2.98	True	True	217.560595958028	220.54235976107884	[['a', 218.91681050800253]]	-2.0	unseen	False	True	1.3568105080025248	2.9817638030508533	1.0	48.0	787620.9426486179	False		False			
03	ses-035	50	images_fmri/typewriter/typewriter_01b.jpg	seen	8089	675	1	None	1742.0	24547.0	1.0	seen-between-within	3	4	222.03	2.98	False	True	222.02839093306105	225.008421960054	[['b', 223.85307845496573]]	2.0	seen	False	True	1.8230784549657244	2.980031026992947	1.0	49.0	787625.4126486179	False		False	0.0	62.580000000074506	14.0
03	ses-035	51	images_fmri/cheetah/cheetah_01b.jpg	seen	1609	135	1	None	316.0	4591.0	1.0	seen-within	2	4	226.5	2.98	True	True	226.49581177497748	229.4782703520032	[['b', 227.53364074998535]]	2.0	seen	False	True	1.0336407499853522	2.9824585770256817	1.0	50.0	787629.8826486178	False		False	0.0	223.5	50.0
03	ses-035	52	images_fmri/guillotine/guillotine_01b.jpg	seen	3517	294	1	None	722.0	10354.0	1.0	seen-within-between	3	4	230.97	2.98	False	False	230.9625627490459	233.94053612207065	[['y', 233.48577011807356]]	-2.0	unseen	True	True	2.515770118073561	2.9779733730247244	1.0	51.0	787634.3526486178	False		False	7.0	0.0	398.0
03	ses-035	53	images_fmri/tattoo/tattoo_01b.jpg	unseen	7573	632	1	None	1630.0	23011.0	1.0	unseen-between	1	4	235.44	2.98	True	False	235.44344485201876	238.4081174890744	[['a', 236.90551022905856]]	-2.0	unseen	False	True	1.465510229058566	2.964672637055628	1.0	52.0	787638.8226486178	False		False			
03	ses-035	54	images_fmri/steamroller/steamroller_01b.jpg	seen	7213	602	1	None	1546.0	21839.0	1.0	seen-between	2	4	239.91	2.98	False	True	239.91136313800237	242.8920932899928	[['y', 241.67570943606552]]	-2.0	unseen	True	True	1.7657094360655208	2.980730151990429	1.0	53.0	787643.2926486179	False		False	7.0	0.0	385.0
03	ses-035	55	images_fmri/candle/candle_01b.jpg	seen	1321	111	1	None	254.0	3743.0	1.0	seen-within	2	4	244.38	2.98	True	False	244.37920418207068	247.3571216380224	[['a', 245.36654266505502], ['x', 245.86382636707276]]	-2.0	unseen	True	True	0.9865426650550262	2.9779174559516832	1.0	54.0	787647.7626486178	False		False	0.0	873.2529929861194	152.0
03	ses-035	56	images_fmri/snake/snake_01b.jpg	seen	6889	575	1	None	1478.0	20936.0	1.0	seen-within-between	3	4	248.85	2.98	True	False	248.84468982601535	251.82495434803425	[['a', 250.11866564804222]]	-2.0	unseen	True	True	1.26866564804223	2.9802645220188424	1.0	55.0	787652.2326486178	False		False	7.0	0.0	440.0
03	ses-035	57	images_fmri/banana_split/banana_split_01b.jpg	unseen	361	31	1	None	66.0	978.0	1.0	unseen-within	1	4	253.32	2.98	True	False	253.32558363501448	256.2906484400155	[['a', 254.86246179207228]]	-2.0	unseen	False	True	1.542461792072288	2.9650648050010204	1.0	56.0	787656.7026486178	False		False			
03	ses-035	58	images_fmri/garbage/garbage_01b.jpg	seen	3157	264	1	None	656.0	9419.0	1.0	seen-within	2	4	257.79	2.98	False	False	257.7935906640487	260.76082236203365	[['x', 258.7793720170157]]	2.0	seen	False	True	0.9893720170156826	2.967231697984971	1.0	57.0	787661.1726486179	False		False	0.0	107.28000000002794	24.0
03	ses-035	59	images_fmri/monkey/monkey_01b.jpg	seen	4849	405	1	None	1018.0	14497.0	1.0	seen-between-within	3	4	262.26	2.98	True	False	262.2572440230288	265.2428911169991	[['x', 263.1866093130084]]	2.0	seen	False	True	0.9266093130083846	2.985647093970329	1.0	58.0	787665.6426486179	False		False	0.0	98.3399999999674	22.0
03	ses-035	60	images_fmri/snail/snail_01b.jpg	unseen	6877	574	1	None	1477.0	20917.0	1.0	unseen-between	1	4	266.73	2.98	False	True	266.7275129200425	269.70785095507745	[['a', 268.84960866207257]]	1.0	seen	True	False	2.119608662072551	2.980338035034947	1.0	59.0	787670.1126486178	False		False			
