subject	session	TrialNumber	image_path	condition	image_nr	category_nr	exemplar_nr	test_image_nr	things_category_nr	things_image_nr	things_exemplar_nr	subcondition	repetition	run	onset	duration	response_mapping_flip_h	response_mapping_flip_v	onset_flip	offset_flip	keypresses	response	response_txt	error	response_confidence	response_time	duration_flip	ran	order	session_trial_time	atypical	atypical_log	exclude_session	delay_days	delay_seconds	trials_since_lastrep
02	ses-004	1	images_fmri/polaroid/polaroid_03s.jpg	unseen	5787	483	3	None	1213.0	17243.0	3.0	unseen-within	1	4	3.0	2.98	False	True	2.9832139015197754	5.966264963150024	[['y', 4.532921075820923]]	-2.0	unseen	False	True	1.5329210758209229	2.983051061630249	1.0	0.0	1620226854.6779	False		False			
02	ses-004	2	images_fmri/tiramisu/tiramisu_03s.jpg	seen	7731	645	3	None	1664.0	23482.0	3.0	seen-between-within	3	4	7.47	2.98	False	True	7.449740886688232	10.433032989501951	[['b', 8.550587892532349]]	2.0	seen	False	True	1.0805878925323489	2.9832921028137207	1.0	1.0	1620226859.1445	False		False	0.0	485.25469994544983	61.0
02	ses-004	3	images_fmri/rifle/rifle_03n.jpg	seen	6291	525	3	None	1312.0	18674.0	3.0	seen-between	2	4	11.94	2.98	False	False	11.916279077529907	14.900423049926758	[['x', 13.256558895111084]]	2.0	seen	False	True	1.3165588951110845	2.9841439723968506	1.0	2.0	1620226863.6110	False		False	7.0	0.0	275.0
02	ses-004	4	images_fmri/donkey/donkey_03s.jpg	seen	2511	210	3	None	505.0	7295.0	3.0	seen-between-within	3	4	16.41	2.98	True	False	16.403111934661865	19.372807025909424	[['x', 17.482738971710205]]	2.0	seen	False	True	1.072738971710205	2.9696950912475586	1.0	3.0	1620226868.0978	False		False	0.0	1128.837000131607	160.0
02	ses-004	5	images_fmri/scorpion/scorpion_03n.jpg	seen	6543	546	3	None	1385.0	19666.0	3.0	seen-within	2	4	20.88	2.98	True	True	20.868704080581665	23.850779056549072	[['b', 21.78171706199646]]	2.0	seen	False	True	0.901717061996461	2.9820749759674072	1.0	4.0	1620226872.5634	False		False	0.0	252.80680012702942	9.0
02	ses-004	6	images_fmri/cellphone/cellphone_03s.jpg	unseen	1527	128	3	None	294.0	4288.0	3.0	unseen-within	1	4	25.35	2.98	True	True	25.338911056518555	28.31692886352539	[['b', 27.782439947128296]]	2.0	seen	True	True	2.4324399471282945	2.978017807006836	1.0	5.0	1620226877.0336	False		False			
02	ses-004	7	images_fmri/rifle/rifle_03n.jpg	seen	6291	525	3	None	1312.0	18674.0	3.0	seen-between-within	3	4	29.82	2.98	True	True	29.80162787437439	32.784297943115234	[['b', 30.68740200996399]]	2.0	seen	False	True	0.867402009963989	2.9826700687408447	1.0	6.0	1620226881.4963	False		False	0.0	17.885299921035767	4.0
02	ses-004	8	images_fmri/sheep/sheep_03s.jpg	unseen	6627	553	3	None	1415.0	20078.0	3.0	unseen-within	1	4	34.29	2.98	False	True	34.2873899936676	37.25077390670776	[['a', 36.200732946395874]]	1.0	seen	True	False	1.9107329463958749	2.963383913040161	1.0	7.0	1620226885.9821	False		False			
02	ses-004	9	images_fmri/microphone/microphone_03s.jpg	seen	4755	397	3	None	999.0	14221.0	3.0	seen-between	2	4	38.76	2.98	True	True	38.75511288642883	41.73315787315369	[['b', 40.31627607345581]]	2.0	seen	False	True	1.5562760734558123	2.978044986724853	1.0	8.0	1620226890.4498	False		False	7.0	0.0	313.0
02	ses-004	10	images_fmri/monkey/monkey_03s.jpg	seen	4851	405	3	None	1018.0	14499.0	3.0	seen-between-within	3	4	43.23	2.98	False	True	43.22202396392822	46.20116305351257	[['b', 44.178926944732666]]	2.0	seen	False	True	0.9489269447326693	2.9791390895843506	1.0	9.0	1620226894.9167	False		False	0.0	1079.6762998104095	149.0
02	ses-004	11	images_fmri/scone/scone_03s.jpg	unseen	6519	544	3	None	1381.0	19611.0	3.0	unseen-within	1	4	47.7	2.98	True	True	47.68450593948364	50.66648197174072	[['b', 49.05638790130615]]	2.0	seen	True	True	1.3563879013061495	2.98197603225708	1.0	10.0	1620226899.3792	False		False			
02	ses-004	12	images_fmri/scone/scone_03s.jpg	seen	6519	544	3	None	1381.0	19611.0	3.0	seen-within	2	4	52.17	2.98	False	False	52.15521287918091	55.13469386100769	[['x', 53.26050090789795]]	2.0	seen	False	True	1.0905009078979475	2.9794809818267822	1.0	11.0	1620226903.8499	False		False	0.0	4.470700025558472	1.0
02	ses-004	13	images_fmri/umbrella/umbrella_03s.jpg	seen	8115	677	3	None	1744.0	24579.0	3.0	seen-within-between	3	4	56.64	2.98	True	True	56.63410305976868	59.60025787353516	[['b', 57.540684938430786]]	2.0	seen	False	True	0.9006849384307856	2.9661548137664795	1.0	12.0	1620226908.3288	False		False	7.0	0.0	471.0
02	ses-004	14	images_fmri/record/record_03s.jpg	seen	6195	517	3	None	1296.0	18433.0	3.0	seen-between	2	4	61.11	2.98	True	True	61.10165095329285	64.08376789093018	[['y', 63.26236891746521]]	1.0	seen	False	False	2.1523689174652105	2.982116937637329	1.0	13.0	1620226912.7964	False		False	7.0	0.0	371.0
02	ses-004	15	images_fmri/wine/wine_03s.jpg	unseen	8499	709	3	None	1824.0	25676.0	3.0	unseen-between	1	4	65.58	2.98	False	True	65.56736993789673	68.54920196533203	[['y', 66.92427587509155]]	-2.0	unseen	False	True	1.3442758750915544	2.9818320274353027	1.0	14.0	1620226917.2621	False		False			
02	ses-004	16	images_fmri/beaker/beaker_03s.jpg	unseen	471	40	3	None	102.0	1530.0	3.0	unseen-between	1	4	70.05	2.98	False	True	70.03572201728821	73.01654291152954	[['a', 71.81485199928284]]	1.0	seen	True	False	1.7648519992828398	2.980820894241333	1.0	15.0	1620226921.7304	False		False			
02	ses-004	17	images_fmri/dolly/dolly_03s.jpg	unseen	2487	208	3	None	502.0	7250.0	3.0	unseen-within	1	4	74.52	2.98	False	False	74.49821186065674	77.48138093948364	[['a', 76.46819591522217]]	1.0	seen	True	False	1.948195915222172	2.9831690788269043	1.0	16.0	1620226926.1929	False		False			
02	ses-004	18	images_fmri/book/book_03s.jpg	seen	843	71	3	None	166.0	2528.0	3.0	seen-within-between	3	4	78.99	2.98	False	True	78.98148703575134	81.9479968547821	[['y', 80.15619993209839]]	-2.0	unseen	True	True	1.1661999320983938	2.9665098190307617	1.0	17.0	1620226930.6762	False		False	7.0	0.0	396.0
02	ses-004	19	images_fmri/guillotine/guillotine_03s.jpg	seen	3519	294	3	None	722.0	10356.0	3.0	seen-between-within	3	4	83.46	2.98	True	False	83.44802594184875	86.4312539100647	[['x', 84.59243488311768]]	2.0	seen	False	True	1.132434883117682	2.9832279682159424	1.0	18.0	1620226935.1427	False		False	0.0	364.55399990081787	34.0
02	ses-004	20	images_fmri/dolly/dolly_03s.jpg	seen	2487	208	3	None	502.0	7250.0	3.0	seen-within	2	4	87.92999999999998	2.98	True	True	87.91455006599426	90.89785385131836	[['b', 88.910315990448]]	2.0	seen	False	True	0.9803159904480196	2.9833037853240967	1.0	19.0	1620226939.6093	False		False	0.0	13.416399955749512	3.0
02	ses-004	21	images_fmri/towel/towel_03s.jpg	unseen	7887	658	3	None	1693.0	23884.0	3.0	unseen-between	1	4	92.4	2.98	False	True	92.38111090660097	95.36434507369997	[['b', 93.51951694488525]]	2.0	seen	True	True	1.1195169448852482	2.983234167098999	1.0	20.0	1620226944.0758	False		False			
02	ses-004	22	images_fmri/drill/drill_03s.jpg	seen	2619	219	3	None	521.0	7561.0	3.0	seen-within-between	3	4	96.87	2.98	False	False	96.8476870059967	99.830904006958	[['x', 98.03528499603271]]	2.0	seen	False	True	1.1652849960327103	2.983217000961304	1.0	21.0	1620226948.5424	False		False	7.0	0.0	227.0
02	ses-004	23	images_fmri/warthog/warthog_03s.jpg	seen	8331	695	3	None	1782.0	25118.0	3.0	seen-between	2	4	101.34	2.98	False	False	101.33090901374815	104.29744505882265	[['x', 102.84307789802551]]	2.0	seen	False	True	1.5030778980255093	2.966536045074463	1.0	22.0	1620226953.0256	False		False	7.0	0.0	457.0
02	ses-004	24	images_fmri/polaroid/polaroid_03s.jpg	seen	5787	483	3	None	1213.0	17243.0	3.0	seen-within	2	4	105.81	2.98	True	True	105.79747796058656	108.78070092201231	[['b', 106.77821397781372]]	2.0	seen	False	True	0.9682139778137184	2.983222961425781	1.0	23.0	1620226957.4922	False		False	0.0	102.81429982185364	23.0
02	ses-004	25	images_fmri/footrest/footrest_03s.jpg	unseen	3099	259	3	None	634.0	9145.0	3.0	unseen-between	1	4	110.28	2.98	True	False	110.2640368938446	113.24720406532288	[['a', 112.90214800834656]]	-2.0	unseen	False	True	2.6221480083465565	2.9831671714782715	1.0	24.0	1620226961.9588	False		False			
02	ses-004	26	images_fmri/dolphin/dolphin_03n.jpg	seen	2499	209	3	None	503.0	7263.0	3.0	seen-between-within	3	4	114.75	2.98	False	True	114.7307779788971	117.71375107765198	[['b', 115.70622396469116]]	2.0	seen	False	True	0.956223964691162	2.982973098754883	1.0	25.0	1620226966.4255	False		False	0.0	902.3712999820709	130.0
02	ses-004	27	images_fmri/shower/shower_03s.jpg	seen	6711	560	3	None	1434.0	20329.0	3.0	seen-within	2	4	119.22	2.98	True	False	119.19727396965028	122.18167185783386	[['x', 120.05494689941406]]	2.0	seen	False	True	0.8349468994140636	2.9843978881835938	1.0	26.0	1620226970.8920	False		False	0.0	570.167799949646	80.0
02	ses-004	28	images_fmri/bubble/bubble_03s.jpg	unseen	1059	89	3	None	208.0	3131.0	3.0	unseen-within	1	4	123.69	2.98	False	True	123.68514585494997	126.664696931839	[['a', 125.57109594345093]]	1.0	seen	True	False	1.88109594345093	2.979551076889038	1.0	27.0	1620226975.3799	False		False			
02	ses-004	29	images_fmri/radiator/radiator_03s.jpg	seen	6087	508	3	None	1273.0	18131.0	3.0	seen-between-within	3	4	128.16	2.98	True	False	128.15328907966614	131.13402390480042	[['x', 129.07106685638428]]	2.0	seen	False	True	0.9110668563842808	2.9807348251342773	1.0	28.0	1620226979.8480	False		False	0.0	391.39510011672974	40.0
02	ses-004	30	images_fmri/dresser/dresser_03n.jpg	seen	2607	218	3	None	520.0	7542.0	3.0	seen-within-between	3	4	132.63	2.98	False	False	132.6197009086609	135.598121881485	[['x', 133.7678918838501]]	2.0	seen	False	True	1.1378918838501022	2.9784209728240967	1.0	29.0	1620226984.3144	False		False	7.0	0.0	518.0
02	ses-004	31	images_fmri/locker/locker_03s.jpg	unseen	4503	376	3	None	942.0	13444.0	3.0	unseen-between	1	4	137.1	2.98	True	True	137.08242297172546	140.06478691101074	[['a', 139.70781302452087]]	-2.0	unseen	False	True	2.60781302452088	2.9823639392852783	1.0	30.0	1620226988.7771	False		False			
02	ses-004	32	images_fmri/nail_polish/nail_polish_03s.jpg	seen	5007	418	3	None	1050.0	14949.0	3.0	seen-between	2	4	141.57	2.98	True	True	141.5483090877533	144.53260898590088	[['b', 142.88983297348022]]	2.0	seen	False	True	1.3198329734802314	2.984299898147583	1.0	31.0	1620226993.2430	False		False	7.0	0.0	465.0
02	ses-004	33	images_fmri/skunk/skunk_03s.jpg	seen	6819	569	3	None	1460.0	20696.0	3.0	seen-within	2	4	146.04	2.98	True	True	146.032222032547	148.99897003173828	[['b', 147.09991788864136]]	2.0	seen	False	True	1.0599178886413654	2.966747999191284	1.0	32.0	1620226997.7269	False		False	0.0	494.185800075531	63.0
02	ses-004	34	images_fmri/revolver/revolver_03s.jpg	seen	6231	520	3	None	1305.0	18576.0	3.0	seen-between	2	4	150.51	2.98	False	False	150.49876189231873	153.48169493675232	[['x', 152.22567987442017]]	2.0	seen	False	True	1.715679874420175	2.9829330444335938	1.0	33.0	1620227002.1935	False		False	7.0	0.0	275.0
02	ses-004	35	images_fmri/bubble/bubble_03s.jpg	seen	1059	89	3	None	208.0	3131.0	3.0	seen-within	2	4	154.98	2.98	False	True	154.96521592140198	157.94875288009644	[['b', 155.89878702163696]]	2.0	seen	False	True	0.9187870216369732	2.983536958694458	1.0	34.0	1620227006.6599	False		False	0.0	31.27999997138977	7.0
02	ses-004	36	images_fmri/gramophone/gramophone_03s.jpg	seen	3351	280	3	None	700.0	10022.0	3.0	seen-within-between	3	4	159.45	2.98	True	False	159.43181800842285	162.41453194618225	[['x', 160.67965984344482]]	2.0	seen	False	True	1.2296598434448356	2.9827139377593994	1.0	35.0	1620227011.1265	False		False	7.0	0.0	288.0
02	ses-004	37	images_fmri/spatula/spatula_03s.jpg	unseen	7035	587	3	None	1509.0	21339.0	3.0	unseen-between	1	4	163.92	2.98	False	True	163.89758706092834	166.88108086586	[['y', 166.0181028842926]]	-2.0	unseen	False	True	2.098102884292615	2.9834938049316406	1.0	36.0	1620227015.5923	False		False			
02	ses-004	38	images_fmri/whisk/whisk_03s.jpg	unseen	8463	706	3	None	1812.0	25517.0	3.0	unseen-within	1	4	168.39	2.98	True	False	168.381178855896	171.34875798225403	[['a', 171.03182005882263]]	-2.0	unseen	False	True	2.641820058822645	2.967579126358032	1.0	37.0	1620227020.0759	False		False			
02	ses-004	39	images_fmri/bee/bee_03s.jpg	unseen	531	45	3	None	112.0	1697.0	3.0	unseen-within	1	4	172.86	2.98	True	False	172.84979486465454	175.83089590072632	[['a', 174.1765739917755]]	-2.0	unseen	False	True	1.316573991775499	2.9811010360717773	1.0	38.0	1620227024.5445	False		False			
02	ses-004	40	images_fmri/computer_screen/computer_screen_03s.jpg	seen	1971	165	3	None	396.0	5692.0	3.0	seen-between	2	4	177.32999999999996	2.98	False	False	177.31248688697815	180.2956829071045	[['x', 178.52251887321472]]	2.0	seen	False	True	1.192518873214766	2.9831960201263428	1.0	39.0	1620227029.0072	False		False	7.0	0.0	232.0
02	ses-004	41	images_fmri/cellphone/cellphone_03s.jpg	seen	1527	128	3	None	294.0	4288.0	3.0	seen-within	2	4	181.8	2.98	False	True	181.7790348529816	184.76233100891116	[['b', 182.76967906951904]]	2.0	seen	False	True	0.9696790695190316	2.983296155929565	1.0	40.0	1620227033.4738	False		False	0.0	156.44019985198975	35.0
02	ses-004	42	images_fmri/crib/crib_03s.jpg	unseen	2187	183	3	None	442.0	6391.0	3.0	unseen-within	1	4	186.27	2.98	False	False	186.24555897712708	189.2288339138031	[['x', 187.55088901519775]]	2.0	seen	True	True	1.2808890151977437	2.9832749366760254	1.0	41.0	1620227037.9403	False		False			
02	ses-004	43	images_fmri/shaving_cream/shaving_cream_03s.jpg	seen	6615	552	3	None	1411.0	20026.0	3.0	seen-within	2	4	190.74	2.98	False	True	190.7287678718567	193.69547200202945	[['b', 191.89291191101074]]	2.0	seen	False	True	1.152911911010733	2.966704130172729	1.0	42.0	1620227042.4235	False		False	0.0	1018.5893001556396	156.0
02	ses-004	44	images_fmri/burrito/burrito_03s.jpg	unseen	1167	98	3	None	226.0	3370.0	3.0	unseen-between	1	4	195.21	2.98	False	False	195.19537496566767	198.1785519123077	[['y', 196.89234900474548]]	-2.0	unseen	False	True	1.6823490047454754	2.983176946640014	1.0	43.0	1620227046.8901	False		False			
02	ses-004	45	images_fmri/warthog/warthog_03s.jpg	seen	8331	695	3	None	1782.0	25118.0	3.0	seen-between-within	3	4	199.68	2.98	True	True	199.66196393966675	202.645201921463	[['b', 200.57935500144958]]	2.0	seen	False	True	0.8993550014495781	2.9832379817962646	1.0	44.0	1620227051.3567	False		False	0.0	98.33109998703003	22.0
02	ses-004	46	images_fmri/thermometer/thermometer_03s.jpg	seen	7635	637	3	None	1647.0	23255.0	3.0	seen-between	2	4	204.15	2.98	True	False	204.128515958786	207.11155796051025	[['x', 206.1550259590149]]	2.0	seen	False	True	2.005025959014887	2.983042001724243	1.0	45.0	1620227055.8232	False		False	7.0	0.0	396.0
02	ses-004	47	images_fmri/candy_bar/candy_bar_03s.jpg	seen	1347	113	3	None	257.0	3784.0	3.0	seen-within-between	3	4	208.62	2.98	True	False	208.6117730140686	211.57832407951355	[['x', 209.6315188407898]]	2.0	seen	False	True	1.0115188407897904	2.9665510654449463	1.0	46.0	1620227060.3065	False		False	7.0	0.0	292.0
02	ses-004	48	images_fmri/boxer_shorts/boxer_shorts_03s.jpg	unseen	903	76	3	None	183.0	2773.0	3.0	unseen-within	1	4	213.09	2.98	True	True	213.07815408706665	216.06144189834595	[['a', 214.32322907447815]]	-2.0	unseen	False	True	1.233229074478146	2.983287811279297	1.0	47.0	1620227064.7729	False		False			
02	ses-004	49	images_fmri/sheep/sheep_03s.jpg	seen	6627	553	3	None	1415.0	20078.0	3.0	seen-within	2	4	217.56	2.98	True	False	217.5447919368744	220.52817797660828	[['x', 218.55159306526184]]	2.0	seen	False	True	0.9915930652618384	2.9833860397338867	1.0	48.0	1620227069.2395	False		False	0.0	183.25740003585815	41.0
02	ses-004	50	images_fmri/pineapple/pineapple_03n.jpg	seen	5619	469	3	None	1183.0	16831.0	3.0	seen-within-between	3	4	222.03	2.98	True	False	222.01131796836853	224.9950258731842	[['x', 224.07623195648193]]	2.0	seen	False	True	2.0462319564819325	2.983707904815674	1.0	49.0	1620227073.7060	False		False	7.0	0.0	244.0
02	ses-004	51	images_fmri/rollerblade/rollerblade_03s.jpg	seen	6363	531	3	None	1327.0	18878.0	3.0	seen-between	2	4	226.5	2.98	True	False	226.4843978881836	229.4628210067749	[['x', 227.53513193130493]]	2.0	seen	False	True	1.0351319313049316	2.9784231185913086	1.0	50.0	1620227078.1791	False		False	7.0	0.0	275.0
02	ses-004	52	images_fmri/breadbox/breadbox_03s.jpg	seen	987	83	3	None	196.0	2968.0	3.0	seen-between-within	3	4	230.97	2.98	True	False	230.96364092826843	233.93637108802795	[['x', 231.9655680656433]]	2.0	seen	False	True	0.9955680656433116	2.972730159759521	1.0	51.0	1620227082.6584	False		False	0.0	628.2971000671387	93.0
02	ses-004	53	images_fmri/cassette/cassette_03s.jpg	unseen	1467	123	3	None	284.0	4152.0	3.0	unseen-between	1	4	235.44	2.98	False	False	235.43006896972656	238.4129629135132	[['x', 237.8803699016571]]	2.0	seen	True	True	2.4403699016571068	2.982893943786621	1.0	52.0	1620227087.1248	False		False			
02	ses-004	54	images_fmri/applesauce/applesauce_03s.jpg	seen	195	17	3	None	33.0	460.0	3.0	seen-between	2	4	239.91	2.98	False	False	239.89758586883545	242.87895107269287	[['x', 240.8041970729828]]	2.0	seen	False	True	0.8941970729827915	2.981365203857422	1.0	53.0	1620227091.5923	False		False	7.0	0.0	491.0
02	ses-004	55	images_fmri/fire/fire_03s.jpg	unseen	2931	245	3	None	591.0	8533.0	3.0	unseen-between	1	4	244.38	2.98	True	False	244.36707186698916	247.3455560207367	[['a', 245.4882788658142]]	-2.0	unseen	False	True	1.1082788658142135	2.9784841537475586	1.0	54.0	1620227096.0618	False		False			
02	ses-004	56	images_fmri/artichoke/artichoke_03n.jpg	seen	207	18	3	None	40.0	555.0	3.0	seen-within-between	3	4	248.85	2.98	False	False	248.83341908454892	251.81205987930295	[['x', 250.037348985672]]	2.0	seen	False	True	1.1873489856720028	2.9786407947540283	1.0	55.0	1620227100.5281	False		False	7.0	0.0	336.0
02	ses-004	57	images_fmri/record/record_03s.jpg	seen	6195	517	3	None	1296.0	18433.0	3.0	seen-between-within	3	4	253.32	2.98	False	True	253.3129849433899	256.27857089042664	[['b', 254.3010950088501]]	2.0	seen	False	True	0.9810950088501044	2.965585947036743	1.0	56.0	1620227105.0077	False		False	0.0	192.21129989624023	43.0
02	ses-004	58	images_fmri/icicle/icicle_03s.jpg	seen	3915	327	3	None	825.0	11792.0	3.0	seen-within-between	3	4	257.79	2.98	False	True	257.779424905777	260.7616250514984	[['b', 259.09903502464294]]	2.0	seen	False	True	1.309035024642924	2.9822001457214355	1.0	57.0	1620227109.4741	False		False	7.0	0.0	403.0
02	ses-004	59	images_fmri/altar/altar_03s.jpg	unseen	75	7	3	None	17.0	234.0	3.0	unseen-between	1	4	262.26	2.98	False	False	262.2469480037689	265.2280218601227	[['y', 264.2211449146271]]	-2.0	unseen	False	True	1.9611449146270843	2.98107385635376	1.0	58.0	1620227113.9417	False		False			
02	ses-004	60	images_fmri/blueberry/blueberry_03s.jpg	seen	771	65	3	None	150.0	2290.0	3.0	seen-within-between	3	4	266.73	2.98	True	False	266.7137930393219	269.69613003730774	[['x', 267.74004006385803]]	2.0	seen	False	True	1.010040063858014	2.98233699798584	1.0	59.0	1620227118.4085	False		False	7.0	0.0	290.0
