subject	session	TrialNumber	image_path	condition	image_nr	category_nr	exemplar_nr	test_image_nr	things_category_nr	things_image_nr	things_exemplar_nr	subcondition	repetition	run	onset	duration	response_mapping_flip_h	response_mapping_flip_v	onset_flip	offset_flip	keypresses	response	response_txt	error	response_confidence	response_time	duration_flip	ran	order	session_trial_time	atypical	atypical_log	exclude_session	delay_days	delay_seconds	trials_since_lastrep
6	ses-020	1	images_fmri/tongs/tongs_06s.jpg	unseen	7806	651	6	None	1675.0	23647.0	6.0	unseen-within	1	6	3.0	2.98	False	False	3.00173806399107	5.966498521971516	[['a', 5.838366631011013]]	1.0	seen	True	False	2.838366631011013	2.9647604579804465	1.0	0.0	453254.2474	False		True			
6	ses-020	2	images_fmri/bamboo/bamboo_06s.jpg	seen	342	29	6	None	63.0	937.0	6.0	seen-between	2	6	7.47	2.98	True	True	7.466405790997669	10.450826380983926	[['b', 8.594191054988187]]	2.0	seen	False	True	1.124191054988187	2.9844205899862573	1.0	1.0	453258.7121	True	_condition:seen_subcondition:seen-between_repetition:2_error:False	True	7.0	0.0	608.0
6	ses-020	3	images_fmri/aluminum_foil/aluminum_foil_06s.jpg	unseen	90	8	6	None	18.0	255.0	6.0	unseen-between	1	6	11.94	2.98	True	True	11.934223618998658	14.917559541994706	[['a', 15.276347137987614]]	-2.0	unseen	False	True	3.336347137987614	2.983335922996048	1.0	2.0	453263.1799	False		True			
6	ses-020	4	images_fmri/pie/pie_06s.jpg	unseen	5562	464	6	None	1169.0	16632.0	6.0	unseen-within	1	6	16.41	2.98	False	False	16.399686996999662	19.38292563398136	[['y', 17.606307760986965]]	-2.0	unseen	False	True	1.196307760986965	2.983238636981696	1.0	3.0	453267.6454	True	_condition:unseen_subcondition:unseen-within_repetition:1_error:False	True			
6	ses-020	5	images_fmri/crutch/crutch_06s.jpg	unseen	2250	188	6	None	453.0	6548.0	6.0	unseen-within	1	6	20.88	2.98	True	True	20.86741954396712	23.849301462993022	[['a', 23.198174115968868]]	-2.0	unseen	False	True	2.318174115968869	2.981881919025909	1.0	4.0	453272.1131	True	_condition:unseen_subcondition:unseen-within_repetition:1_error:False	True			
6	ses-020	6	images_fmri/trowel/trowel_06s.jpg	seen	8010	668	6	None	1720.0	24248.0	6.0	seen-within	2	6	25.35	2.98	True	True	25.351694292970933	28.316096178023145	[['b', 26.56022630596999]]	2.0	seen	False	True	1.2102263059699894	2.964401885052212	1.0	5.0	453276.5974	True	_subcondition:seen-within_repetition:2	True	0.0		50.0
6	ses-020	7	images_fmri/coleslaw/coleslaw_06s.jpg	unseen	1926	161	6	None	387.0	5571.0	6.0	unseen-between	1	6	29.82	2.98	False	True	29.818479756009765	32.8005971229868	[['y', 32.388136207999196]]	-2.0	unseen	False	True	2.568136207999196	2.982117366977036	1.0	6.0	453281.0642	False		True			
6	ses-020	8	images_fmri/spider/spider_06s.jpg	unseen	7062	589	6	None	1514.0	21410.0	6.0	unseen-between	1	6	34.29	2.98	True	False	34.283518864016514	37.26706008100882	[['a', 35.77262691798387]]	-2.0	unseen	False	True	1.4826269179838718	2.9835412169923075	1.0	7.0	453285.5292	False		True			
6	ses-020	9	images_fmri/pie/pie_06s.jpg	seen	5562	464	6	None	1169.0	16632.0	6.0	seen-within	2	6	38.76	2.98	False	False	38.75360127101885	41.7357625690056	[['x', 39.7051767790108]]	2.0	seen	False	True	0.9451767790108008	2.9821612979867496	1.0	8.0	453289.9993	True	_subcondition:seen-within_repetition:2	True	0.0	22.35390000004554	5.0
6	ses-020	10	images_fmri/camel/camel_06s.jpg	unseen	1278	107	6	None	246.0	3644.0	6.0	unseen-within	1	6	43.23	2.98	True	False	43.22079336899333	46.20003547397209	[['a', 45.175864973978605]]	-2.0	unseen	False	True	1.945864973978608	2.9792421049787663	1.0	9.0	453294.4665	True	_condition:unseen_subcondition:unseen-within_repetition:1_error:False	True			
6	ses-020	11	images_fmri/parachute/parachute_06s.jpg	seen	5358	447	6	None	1119.0	15913.0	6.0	seen-within	2	6	47.7	2.98	False	True	47.70366016100161	50.66647265898064	[['y', 49.62077020399738], ['b', 50.1126612899825], ['b', 50.497733899974264]]	-2.0	unseen	True	True	1.9207702039973784	2.96281249797903	1.0	10.0	453298.9494	False		True	0.0		248.0
6	ses-020	12	images_fmri/tongs/tongs_06s.jpg	seen	7806	651	6	None	1675.0	23647.0	6.0	seen-within	2	6	52.17	2.98	False	False	52.16668598097749	55.153600407007616	[['x', 53.05304088501725]]	2.0	seen	False	True	0.8830408850172518	2.986914426030125	1.0	11.0	453303.4124	False		True	0.0	49.164999999979045	11.0
6	ses-020	13	images_fmri/camel/camel_06s.jpg	seen	1278	107	6	None	246.0	3644.0	6.0	seen-within	2	6	56.64	2.98	True	True	56.63494914397597	59.62081092200242	[['b', 57.724589973979164]]	2.0	seen	False	True	1.0845899739791631	2.9858617780264467	1.0	12.0	453307.8807	True	_subcondition:seen-within_repetition:2	True	0.0	13.414199999999257	3.0
6	ses-020	14	images_fmri/needle/needle_06s.jpg	seen	5046	421	6	None	1056.0	15034.0	6.0	seen-within-between	3	6	61.11	2.98	True	False	61.10046633600723	64.08283697196748	[['x', 62.464051236980595]]	2.0	seen	False	True	1.3540512369805953	2.982370635960251	1.0	13.0	453312.3462	True	_condition:seen_subcondition:seen-within-between_repetition:3_error:False	True	7.0	0.0	391.0
6	ses-020	15	images_fmri/rocking_chair/rocking_chair_06s.jpg	seen	6342	529	6	None	1322.0	18813.0	6.0	seen-within	2	6	65.58	2.98	True	False	65.58592071197927	68.5542242610245	[['x', 66.42991401598556]]	2.0	seen	False	True	0.8499140159855614	2.968303549045231	1.0	14.0	453316.8316	False		True	0.0		87.0
6	ses-020	16	images_fmri/horseshoe/horseshoe_06s.jpg	unseen	3834	320	6	None	800.0	11443.0	6.0	unseen-between	1	6	70.05	2.98	True	False	70.05491367197828	73.03613648802275	[['a', 73.14793554297648]]	-2.0	unseen	False	True	3.0979355429764865	2.9812228160444647	1.0	15.0	453321.3006	True	_condition:unseen_subcondition:unseen-between_repetition:1_error:False	True			
6	ses-020	17	images_fmri/tamale/tamale_06s.jpg	unseen	7554	630	6	None	1619.0	22860.0	6.0	unseen-within	1	6	74.52	2.98	False	False	74.5158754279837	77.49977235600818	[['y', 76.75182473601308]]	-2.0	unseen	False	True	2.231824736013081	2.9838969280244783	1.0	16.0	453325.7616	True	_condition:unseen_subcondition:unseen-within_repetition:1_error:False	True			
6	ses-020	18	images_fmri/wheelbarrow/wheelbarrow_06s.jpg	seen	8430	703	6	None	1808.0	25469.0	6.0	seen-within-between	3	6	78.99	2.98	False	True	78.98709305300144	81.96632624301128	[['y', 80.90167458698852]]	-2.0	unseen	True	True	1.911674586988525	2.979233190009836	1.0	17.0	453330.2328	True	_condition:seen_subcondition:seen-within-between_repetition:3_error:True	True	7.0	0.0	598.0
6	ses-020	19	images_fmri/blueberry/blueberry_06n.jpg	seen	774	65	6	None	150.0	2293.0	6.0	seen-within	2	6	83.46	2.98	False	True	83.45436275401153	86.43252025201218	[['b', 84.6906030959799]]	2.0	seen	False	True	1.2306030959799017	2.978157498000656	1.0	18.0	453334.7001	False		True	0.0		283.0
6	ses-020	20	images_fmri/sock/sock_06s.jpg	unseen	6942	579	6	None	1490.0	21093.0	6.0	unseen-within	1	6	87.92999999999998	2.98	False	True	87.9360308109899	90.89897566701984	[['y', 90.11270428000716]]	-2.0	unseen	False	True	2.1827042800071865	2.962944856029935	1.0	19.0	453339.1817	False		True			
6	ses-020	21	images_fmri/cane/cane_06n.jpg	seen	1362	114	6	None	259.0	3811.0	6.0	seen-within	2	6	92.4	2.98	True	True	92.40288210799918	95.38223023200408	[['b', 93.83233917201869]]	2.0	seen	False	True	1.4323391720186862	2.9793481240049005	1.0	20.0	453343.6486	False		True	0.0		213.0
6	ses-020	22	images_fmri/revolver/revolver_06s.jpg	unseen	6234	520	6	None	1305.0	18579.0	6.0	unseen-between	1	6	96.87	2.98	True	False	96.87022948998492	99.8486810909817	[['a', 99.27659126697108]]	-2.0	unseen	False	True	2.406591266971077	2.9784516009967774	1.0	21.0	453348.1159	False		True			
6	ses-020	23	images_fmri/drum/drum_06s.jpg	unseen	2634	220	6	None	523.0	7593.0	6.0	unseen-between	1	6	101.34	2.98	False	False	101.33316367701627	104.31522317096824	[['y', 103.32064243697096]]	-2.0	unseen	False	True	1.9806424369709528	2.982059493951965	1.0	22.0	453352.5789	False		True			
6	ses-020	24	images_fmri/seagull/seagull_06s.jpg	seen	6582	549	6	None	1396.0	19828.0	6.0	seen-between	2	6	105.81	2.98	True	False	105.79956889600726	108.78183037601411	[['a', 108.13455714198062]]	-2.0	unseen	True	True	2.32455714198062	2.982261480006855	1.0	23.0	453357.0453	True	_subcondition:seen-between_repetition:2	True	7.0	0.0	614.0
6	ses-020	25	images_fmri/scallion/scallion_06s.jpg	unseen	6474	540	6	None	1373.0	19504.0	6.0	unseen-between	1	6	110.28	2.98	False	True	110.2847424299689	113.25394517101812	[['y', 113.44522380497074]]	-2.0	unseen	False	True	3.1652238049707364	2.96920274104923	1.0	24.0	453361.5304	False		True			
6	ses-020	26	images_fmri/spinach/spinach_06s.jpg	unseen	7074	590	6	None	1516.0	21437.0	6.0	unseen-between	1	6	114.75	2.98	False	False	114.74832458700983	117.73144595598568	[['y', 116.48432764300378]]	-2.0	unseen	False	True	1.7343276430037804	2.983121368975844	1.0	25.0	453365.994	False		True			
6	ses-020	27	images_fmri/cupcake/cupcake_06s.jpg	seen	2310	193	6	None	462.0	6693.0	6.0	seen-within	2	6	119.22	2.98	False	False	119.21591829601677	122.20089957601158	[['x', 120.12628879002295]]	2.0	seen	False	True	0.9062887900229556	2.9849812799948268	1.0	26.0	453370.4616	True	_subcondition:seen-within_repetition:2	True	0.0		36.0
6	ses-020	28	images_fmri/butterfly/butterfly_06s.jpg	seen	1194	100	6	None	230.0	3425.0	6.0	seen-within-within-between	4	6	123.69	2.98	False	False	123.68697783502284	126.66516424197472	[['y', 126.1881069149822]]	-2.0	unseen	True	True	2.498106914982202	2.978186406951864	1.0	27.0	453374.9327	True	_condition:seen_subcondition:seen-within-within-between_repetition:4_error:True	True	7.0	0.0	513.0
6	ses-020	29	images_fmri/bamboo/bamboo_06s.jpg	seen	342	29	6	None	63.0	937.0	6.0	seen-between-within	3	6	128.16	2.98	False	False	128.1480729309842	131.13599450298352	[['x', 128.91422599897487]]	2.0	seen	False	True	0.7542259989748743	2.987921571999322	1.0	28.0	453379.3938	True	_subcondition:seen-between-within_repetition:3	True	0.0	120.68170000001555	27.0
6	ses-020	30	images_fmri/groundhog/groundhog_06s.jpg	seen	3486	291	6	None	719.0	10304.0	6.0	seen-within	2	6	132.63	2.98	False	True	132.63239293301012	135.5979640770238	[['b', 133.97642811900005]]	2.0	seen	False	True	1.346428119000052	2.9655711440136656	1.0	29.0	453383.8781	True	_subcondition:seen-within_repetition:2	True	0.0		130.0
6	ses-020	31	images_fmri/carrot/carrot_06n.jpg	unseen	1446	121	6	None	278.0	4080.0	6.0	unseen-within	1	6	137.1	2.98	False	True	137.10366382199572	140.0811595270061	[['y', 139.83927799900994]]	-2.0	unseen	False	True	2.7392779990099427	2.9774957050103694	1.0	30.0	453388.3494	True	_condition:unseen_subcondition:unseen-within_repetition:1_error:False	True			
6	ses-020	32	images_fmri/bolt/bolt_06s.jpg	unseen	834	70	6	None	160.0	2444.0	6.0	unseen-between	1	6	141.57	2.98	False	False	141.56426733301487	144.5477095929673	[['y', 143.91232791397488]]	-2.0	unseen	False	True	2.3423279139748843	2.983442259952426	1.0	31.0	453392.81	False		True			
6	ses-020	33	images_fmri/closet/closet_06s.jpg	seen	1830	153	6	None	361.0	5219.0	6.0	seen-between-within	3	6	146.04	2.98	False	True	146.03664495697012	149.014096022991	[['b', 147.52430854697013]]	2.0	seen	False	True	1.4843085469701407	2.977451066020876	1.0	32.0	453397.2823	False		True	0.0		273.0
6	ses-020	34	images_fmri/ring/ring_06s.jpg	seen	6306	526	6	None	1314.0	18702.0	6.0	seen-within	2	6	150.51	2.98	True	True	150.502918595972	153.4806797140045	[['y', 152.20543115300825], ['b', 152.78421958402032]]	1.0	seen	False	False	1.6954311530082578	2.977761118032504	1.0	33.0	453401.7486	False		True	0.0		149.0
6	ses-020	35	images_fmri/carrot/carrot_06n.jpg	seen	1446	121	6	None	278.0	4080.0	6.0	seen-within	2	6	154.98	2.98	False	True	154.98226290300954	157.95259087596787	[['b', 155.82350092101842]]	2.0	seen	False	True	0.8435009210184319	2.97032797295833	1.0	34.0	453406.228	True	_subcondition:seen-within_repetition:2	True	0.0	17.878599999996368	4.0
6	ses-020	36	images_fmri/bracelet2/bracelet2_06s.jpg	unseen	954	80	6	None	189.0	2865.0	6.0	unseen-between	1	6	159.45	2.98	True	True	159.44820473599248	162.43048588297097	[['a', 162.18602261098567]]	-2.0	unseen	False	True	2.7360226109856853	2.982281146978494	1.0	35.0	453410.6939	True	_condition:unseen_subcondition:unseen-between_repetition:1_error:False	True			
6	ses-020	37	images_fmri/lobster/lobster_06s.jpg	seen	4482	374	6	None	940.0	13423.0	6.0	seen-within	2	6	163.92	2.98	True	True	163.91367848601658	166.8983396940166	[['b', 164.8582339679706]]	2.0	seen	False	True	0.9382339679706037	2.984661208000034	1.0	36.0	453415.1594	True	_subcondition:seen-within_repetition:2	True	0.0		92.0
6	ses-020	38	images_fmri/butterfly/butterfly_06s.jpg	seen	1194	100	6	None	230.0	3425.0	6.0	seen-within-within-between-within	5	6	168.39	2.98	True	False	168.38498385297137	171.3634574940079	[['x', 170.0644091879949]]	2.0	seen	False	True	1.674409187994911	2.978473641036544	1.0	37.0	453419.6307	True	_subcondition:seen-within-within-between-within_repetition:5	True	0.0	44.69799999997485	10.0
6	ses-020	39	images_fmri/pocketknife/pocketknife_06s.jpg	unseen	5766	481	6	None	1208.0	17168.0	6.0	unseen-within	1	6	172.86	2.98	False	True	172.8525216410053	175.8300014329725	[['y', 175.50602751696715]]	-2.0	unseen	False	True	2.6460275169671377	2.9774797919671983	1.0	38.0	453424.0982	False		True			
6	ses-020	40	images_fmri/trumpet/trumpet_06s.jpg	unseen	8034	670	6	None	1722.0	24277.0	6.0	unseen-between	1	6	177.32999999999996	2.98	False	True	177.33028582198313	180.29762739897703	[['y', 180.17506110598333]]	-2.0	unseen	False	True	2.845061105983376	2.967341576993931	1.0	39.0	453428.576	False		True			
6	ses-020	41	images_fmri/telescope/telescope_06s.jpg	seen	7602	634	6	None	1641.0	23168.0	6.0	seen-within-between-within	4	6	181.8	2.98	True	False	181.797033209994	184.7838168980088	[['x', 182.57603794400347]]	2.0	seen	False	True	0.7760379440034626	2.986783688014839	1.0	40.0	453433.0427	True	_subcondition:seen-within-between-within_repetition:4	True	0.0		266.0
6	ses-020	42	images_fmri/clipboard/clipboard_06s.jpg	unseen	1806	151	6	None	356.0	5153.0	6.0	unseen-between	1	6	186.27	2.98	True	True	186.26745156297693	189.24654150701824	[['a', 188.29594426398398]]	-2.0	unseen	False	True	2.0259442639839733	2.979089944041334	1.0	41.0	453437.5132	True	_condition:unseen_subcondition:unseen-between_repetition:1_error:False	True			
6	ses-020	43	images_fmri/cactus/cactus_06s.jpg	unseen	1218	102	6	None	236.0	3511.0	6.0	unseen-within	1	6	190.74	2.98	True	False	190.7338956730091	193.71412304998373	[['a', 194.00708216801286]]	-2.0	unseen	False	True	3.2670821680128483	2.980227376974653	1.0	42.0	453441.9796	True	_condition:unseen_subcondition:unseen-within_repetition:1_error:False	True			
6	ses-020	44	images_fmri/firetruck/firetruck_06s.jpg	seen	2946	246	6	None	597.0	8631.0	6.0	seen-within	2	6	195.21	2.98	False	False	195.21295666397785	198.17962654097937	[['x', 196.37270323600387]]	2.0	seen	False	True	1.162703236003864	2.96666987700155	1.0	43.0	453446.4587	False		True	0.0		69.0
6	ses-020	45	images_fmri/tent/tent_06s.jpg	unseen	7626	636	6	None	1644.0	23212.0	6.0	unseen-between	1	6	199.68	2.98	True	True	199.68479788699187	202.662838682998	[['a', 200.89637527201558]]	-2.0	unseen	False	True	1.2163752720155685	2.9780407960060984	1.0	44.0	453450.9305	False		True			
6	ses-020	46	images_fmri/sickle/sickle_06s.jpg	seen	6762	564	6	None	1442.0	20449.0	6.0	seen-within	2	6	204.15	2.98	False	False	204.1501558410237	207.12937395396875	[['x', 205.52609017898794]]	2.0	seen	False	True	1.376090178987937	2.979218112945091	1.0	45.0	453455.3959	True	_subcondition:seen-within_repetition:2	True	0.0		58.0
6	ses-020	47	images_fmri/sock/sock_06s.jpg	seen	6942	579	6	None	1490.0	21093.0	6.0	seen-within	2	6	208.62	2.98	True	False	208.6137412469834	211.59581203496785	[['x', 209.7949875940103]]	2.0	seen	False	True	1.1749875940103038	2.982070787984412	1.0	46.0	453459.8594	False		True	0.0	120.6777000000002	27.0
6	ses-020	48	images_fmri/crutch/crutch_06s.jpg	seen	2250	188	6	None	453.0	6548.0	6.0	seen-within	2	6	213.09	2.98	False	True	213.0848328149877	216.0627205609926	[['b', 214.8610506739933]]	2.0	seen	False	True	1.771050673993301	2.9778877460048534	1.0	47.0	453464.3305	True	_subcondition:seen-within_repetition:2	True	0.0	192.21739999996495	43.0
6	ses-020	49	images_fmri/manhole/manhole_06s.jpg	unseen	4614	385	6	None	968.0	13798.0	6.0	unseen-between	1	6	217.56	2.98	True	False	217.5651485149865	220.53383138799109	[['a', 220.65511734801112]]	-2.0	unseen	False	True	3.095117348011115	2.968682873004582	1.0	48.0	453468.8109	True	_condition:unseen_subcondition:unseen-between_repetition:1_error:False	True			
6	ses-020	50	images_fmri/tortilla/tortilla_06s.jpg	unseen	7854	655	6	None	1688.0	23819.0	6.0	unseen-between	1	6	222.03	2.98	False	True	222.02894212602405	225.012215928	[['y', 224.71984924201388]]	-2.0	unseen	False	True	2.689849242013878	2.9832738019758835	1.0	49.0	453473.2746	False		True			
6	ses-020	51	images_fmri/kimono/kimono_06s.jpg	unseen	4134	345	6	None	874.0	12512.0	6.0	unseen-between	1	6	226.5	2.98	True	False	226.4957985079964	229.47943456302164	[['y', 228.91359088098397]]	1.0	seen	True	False	2.413590880983975	2.983636055025272	1.0	50.0	453477.7415	False		True			
6	ses-020	52	images_fmri/puck/puck_06s.jpg	seen	5982	499	6	None	1246.0	17721.0	6.0	seen-within-between-within	4	6	230.97	2.98	True	True	230.9678330050083	233.94713459798368	[['b', 231.8846906630206]]	2.0	seen	False	True	0.9146906630205932	2.979301592975389	1.0	51.0	453482.2135	True	_subcondition:seen-within-between-within_repetition:4	True	0.0		158.0
6	ses-020	53	images_fmri/fig/fig_06n.jpg	seen	2910	243	6	None	582.0	8424.0	6.0	seen-between-within	3	6	235.44	2.98	True	False	235.43397282296792	238.41230613802327	[['x', 237.005770304997]]	2.0	seen	False	True	1.5657703049969882	2.978333315055352	1.0	52.0	453486.6797	True	_subcondition:seen-between-within_repetition:3	True	0.0		117.0
6	ses-020	54	images_fmri/pocketknife/pocketknife_06s.jpg	seen	5766	481	6	None	1208.0	17168.0	6.0	seen-within	2	6	239.91	2.98	True	True	239.91292773699388	242.8785437530023	[['b', 241.22668637800962]]	2.0	seen	False	True	1.3166863780096207	2.965616016008425	1.0	53.0	453491.1586	False		True	0.0	67.06040000001667	15.0
6	ses-020	55	images_fmri/cactus/cactus_06s.jpg	seen	1218	102	6	None	236.0	3511.0	6.0	seen-within	2	6	244.38	2.98	False	True	244.3792973689852	247.3657691479893	[['b', 245.52252286399016]]	2.0	seen	False	True	1.142522863990166	2.986471779004205	1.0	54.0	453495.625	True	_subcondition:seen-within_repetition:2	True	0.0	53.64539999997942	12.0
6	ses-020	56	images_fmri/tamale/tamale_06s.jpg	seen	7554	630	6	None	1619.0	22860.0	6.0	seen-within	2	6	248.85	2.98	True	False	248.84910189599032	251.83198704000097	[['x', 249.85557204298675]]	2.0	seen	False	True	1.0055720429867565	2.982885144010652	1.0	55.0	453500.0948	True	_subcondition:seen-within_repetition:2	True	0.0	174.33319999999367	39.0
6	ses-020	57	images_fmri/toast/toast_06s.jpg	unseen	7746	646	6	None	1666.0	23518.0	6.0	unseen-within	1	6	253.32	2.98	False	False	253.31681970797945	256.2948759840219	[['y', 254.4174999789684]]	-2.0	unseen	False	True	1.0974999789684148	2.97805627604248	1.0	56.0	453504.5625	False		True			
6	ses-020	58	images_fmri/cat/cat_06s.jpg	unseen	1482	124	6	None	285.0	4167.0	6.0	unseen-between	1	6	257.79	2.98	True	True	257.78376895101974	260.7616716569755	[['a', 260.3614778650226]]	-2.0	unseen	False	True	2.5714778650225867	2.9779027059557848	1.0	57.0	453509.0295	True	_condition:unseen_subcondition:unseen-between_repetition:1_error:False	True			
6	ses-020	59	images_fmri/pistachio/pistachio_06n.jpg	seen	5658	472	6	None	1189.0	16910.0	6.0	seen-between-within	3	6	262.26	2.98	False	False	262.2621925229905	265.2330883439863	[['x', 263.114734939998]]	2.0	seen	False	True	0.8547349399980249	2.9708958209957927	1.0	58.0	453513.5079	False		True	0.0		154.0
6	ses-020	60	images_fmri/toast/toast_06s.jpg	seen	7746	646	6	None	1666.0	23518.0	6.0	seen-within	2	6	266.73	2.98	True	True	266.7309217270231	269.71537658799207	[['b', 267.73157773702405]]	2.0	seen	False	True	1.0015777370240355	2.984454860968981	1.0	59.0	453517.9766	False		True	0.0	13.414099999994503	3.0
