subject	session	TrialNumber	image_path	condition	image_nr	category_nr	exemplar_nr	test_image_nr	things_category_nr	things_image_nr	things_exemplar_nr	subcondition	repetition	run	onset	duration	response_mapping_flip_h	response_mapping_flip_v	onset_flip	offset_flip	keypresses	response	response_txt	error	response_confidence	response_time	duration_flip	ran	order	session_trial_time	atypical	atypical_log	exclude_session	delay_days	delay_seconds	trials_since_lastrep
03	ses-013	1	images_fmri/llama/llama_06s.jpg	unseen	4470	373	6	None	939.0	13410.0	6.0	unseen-within	1	3	3.0	2.98	False	True	3.0020411014556885	5.96636700630188	[['y', 4.600003004074097]]	-2.0	unseen	False	True	1.600003004074097	2.9643259048461914	1.0	0.0	1626283963.6511	False		False			
03	ses-013	2	images_fmri/truck/truck_02s.jpg	seen	8018	669	2	None	1721.0	24261.0	2.0	seen-within-between	3	3	7.47	2.98	False	True	7.468801975250244	10.44967794418335	[['a', 8.910144090652466]]	1.0	seen	False	False	1.440144090652466	2.980875968933105	1.0	1.0	1626283968.1179	False		False	7.0	0.0	135.0
03	ses-013	3	images_fmri/omelet/omelet_02s.jpg	seen	5162	431	2	None	1077.0	15309.0	2.0	seen-between	2	3	11.94	2.98	True	True	11.93504810333252	14.91626501083374	[['x', 13.681834936141968]]	-1.0	unseen	True	False	1.7418349361419685	2.9812169075012207	1.0	2.0	1626283972.5841	False		False	7.0	0.0	249.0
03	ses-013	4	images_fmri/tweezers/tweezers_06s.jpg	unseen	8082	674	6	None	1740.0	24527.0	6.0	unseen-within	1	3	16.41	2.98	True	False	16.400617122650146	19.382694005966187	[['b', 17.868059158325195]]	-1.0	unseen	False	False	1.4580591583251952	2.98207688331604	1.0	3.0	1626283977.0497	False		False			
03	ses-013	5	images_fmri/tray/tray_02s.jpg	seen	7958	664	2	None	1706.0	24061.0	2.0	seen-between-within	3	3	20.88	2.98	False	True	20.867215156555176	23.85124897956848	[['b', 22.081714153289795]]	2.0	seen	False	True	1.201714153289796	2.9840338230133057	1.0	4.0	1626283981.5163	False		False	0.0	137.0413999557495	10.0
03	ses-013	6	images_fmri/drill/drill_02s.jpg	seen	2618	219	2	None	521.0	7560.0	2.0	seen-within-between	3	3	25.35	2.98	True	True	25.35123896598816	28.31828498840332	[['b', 26.460610151290894]]	2.0	seen	False	True	1.110610151290892	2.967046022415161	1.0	5.0	1626283986.0003	False		False	7.0	0.0	400.0
03	ses-013	7	images_fmri/shell2/shell2_02s.jpg	seen	6638	554	2	None	1419.0	20128.0	2.0	seen-between-within	3	3	29.82	2.98	False	False	29.81813716888428	32.804028034210205	[['x', 30.694574117660522]]	2.0	seen	False	True	0.8745741176605222	2.985890865325928	1.0	6.0	1626283990.4672	False		False	0.0	665.8468999862671	107.0
03	ses-013	8	images_fmri/crouton/crouton_06s.jpg	unseen	2214	185	6	None	446.0	6455.0	6.0	unseen-within	1	3	34.29	2.98	True	True	34.28814697265625	37.2667760848999	[['x', 36.0697660446167], ['a', 37.04013204574585]]	-1.0	unseen	False	False	1.7797660446167	2.9786291122436523	1.0	7.0	1626283994.9372	False		False			
03	ses-013	9	images_fmri/punch1/punch1_06s.jpg	seen	6018	502	6	None	1255.0	17879.0	6.0	seen-within	2	3	38.76	2.98	False	True	38.74993515014648	41.73830914497376	[['b', 39.733855962753296]]	2.0	seen	False	True	0.973855962753298	2.9883739948272705	1.0	8.0	1626283999.3990	False		False	0.0	347.13549995422363	57.0
03	ses-013	10	images_fmri/chin/chin_02s.jpg	seen	1694	142	2	None	331.0	4783.0	2.0	seen-within-between	3	3	43.23	2.98	True	False	43.23619914054871	46.19997906684876	[['b', 45.25564408302307]]	-1.0	unseen	True	False	2.0256440830230744	2.963779926300049	1.0	9.0	1626284003.8853	False		False	7.0	0.0	414.0
03	ses-013	11	images_fmri/sock/sock_02s.jpg	seen	6938	579	2	None	1490.0	21089.0	2.0	seen-between-within	3	3	47.7	2.98	True	False	47.70546102523804	50.67085814476013	[['x', 48.60169005393982]]	2.0	seen	False	True	0.9016900539398164	2.9653971195220947	1.0	10.0	1626284008.3545	False		False	0.0	576.4516999721527	87.0
03	ses-013	12	images_fmri/grate/grate_06s.jpg	unseen	3426	286	6	None	708.0	10159.0	6.0	unseen-between	1	3	52.17	2.98	False	True	52.16858911514282	55.149511098861694	[['x', 53.98564004898071]]	-1.0	unseen	False	False	1.8156400489807112	2.980921983718872	1.0	11.0	1626284012.8177	False		False			
03	ses-013	13	images_fmri/odometer/odometer_06s.jpg	unseen	5142	429	6	None	1072.0	15241.0	6.0	unseen-within	1	3	56.64	2.98	False	False	56.63759613037109	59.61618614196777	[['b', 58.30693817138672]]	-1.0	unseen	False	False	1.6669381713867182	2.97859001159668	1.0	12.0	1626284017.2867	False		False			
03	ses-013	14	images_fmri/flyswatter/flyswatter_02s.jpg	seen	3038	254	2	None	624.0	9003.0	2.0	seen-between	2	3	61.11	2.98	False	True	61.10428595542908	64.08276510238647	[['y', 62.96687197685242], ['a', 63.8932249546051]]	-2.0	unseen	True	True	1.8568719768524176	2.978479146957397	1.0	13.0	1626284021.7534	False		False	7.0	0.0	253.0
03	ses-013	15	images_fmri/viewfinder/viewfinder_06s.jpg	seen	8214	685	6	None	1764.0	24865.0	6.0	seen-within	2	3	65.58	2.98	True	True	65.58280801773071	68.54921412467957	[['b', 67.00183606147766]]	2.0	seen	False	True	1.4218360614776628	2.9664061069488525	1.0	14.0	1626284026.2319	False		False	0.0	302.45650005340576	47.0
03	ses-013	16	images_fmri/skunk/skunk_06s.jpg	unseen	6822	569	6	None	1460.0	20699.0	6.0	unseen-within	1	3	70.05	2.98	True	True	70.051265001297	73.03247404098511	[['x', 71.9815890789032], ['a', 72.99743294715881]]	-1.0	unseen	False	False	1.931589078903201	2.9812090396881104	1.0	15.0	1626284030.7003	False		False			
03	ses-013	17	images_fmri/hand/hand_06s.jpg	unseen	3630	303	6	None	745.0	10674.0	6.0	unseen-between	1	3	74.52	2.98	False	False	74.51593899726868	77.49934911727905	[['y', 75.81660604476929]]	-2.0	unseen	False	True	1.296606044769291	2.983410120010376	1.0	16.0	1626284035.1650	False		False			
03	ses-013	18	images_fmri/streetlight/streetlight_06n.jpg	unseen	7302	609	6	None	1572.0	22202.0	6.0	unseen-between	1	3	78.99	2.98	False	False	78.9883029460907	81.96569204330444	[['y', 80.32976698875427]]	-2.0	unseen	False	True	1.3397669887542776	2.977389097213745	1.0	17.0	1626284039.6374	False		False			
03	ses-013	19	images_fmri/defibrillator/defibrillator_02s.jpg	seen	2366	198	2	None	478.0	6912.0	2.0	seen-between	2	3	83.46	2.98	True	False	83.45078611373901	86.43255305290222	[['a', 85.2747790813446]]	-2.0	unseen	True	True	1.8147790813446107	2.981766939163208	1.0	18.0	1626284044.0999	False		False	7.0	0.0	242.0
03	ses-013	20	images_fmri/subway/subway_02s.jpg	seen	7322	611	2	None	1579.0	22295.0	2.0	seen-within-between	3	3	87.92999999999998	2.98	False	True	87.9359359741211	90.89889407157898	[['b', 89.61205196380615], ['a', 90.12134909629822]]	2.0	seen	False	True	1.682051963806174	2.9629580974578857	1.0	19.0	1626284048.5850	False		False	7.0	0.0	371.0
03	ses-013	21	images_fmri/rhinoceros/rhinoceros_02s.jpg	seen	6242	521	2	None	1307.0	18607.0	2.0	seen-within-between	3	3	92.4	2.98	False	False	92.40433597564696	95.3821439743042	[['x', 93.90235304832458]]	2.0	seen	False	True	1.5023530483245793	2.9778079986572266	1.0	20.0	1626284053.0534	False		False	7.0	0.0	276.0
03	ses-013	22	images_fmri/altar/altar_02s.jpg	seen	74	7	2	None	17.0	233.0	2.0	seen-between	2	3	96.87	2.98	False	False	96.86964297294617	99.85162711143494	[['y', 98.0676281452179]]	-2.0	unseen	True	True	1.197628145217891	2.981984138488769	1.0	21.0	1626284057.5187	False		False	7.0	0.0	219.0
03	ses-013	23	images_fmri/spatula/spatula_02s.jpg	seen	7034	587	2	None	1509.0	21338.0	2.0	seen-within-between	3	3	101.34	2.98	False	False	101.336256980896	104.31516909599304	[['a', 103.06831908226013]]	1.0	seen	False	False	1.7283190822601284	2.978912115097046	1.0	22.0	1626284061.9853	False		False	7.0	0.0	238.0
03	ses-013	24	images_fmri/bear/bear_06n.jpg	unseen	498	42	6	None	106.0	1596.0	6.0	unseen-within	1	3	105.81	2.98	False	False	105.79992508888245	108.78169202804564	[['a', 107.90213298797607]]	1.0	seen	True	False	2.092132987976072	2.981766939163208	1.0	23.0	1626284066.4490	False		False			
03	ses-013	25	images_fmri/kettle/kettle_06s.jpg	unseen	4110	343	6	None	869.0	12431.0	6.0	unseen-between	1	3	110.28	2.98	True	False	110.28743815422058	113.24835014343262	[['a', 112.04929995536804]]	-2.0	unseen	False	True	1.7692999553680409	2.960911989212036	1.0	24.0	1626284070.9365	False		False			
03	ses-013	26	images_fmri/sandpaper/sandpaper_06s.jpg	seen	6438	537	6	None	1357.0	19302.0	6.0	seen-within	2	3	114.75	2.98	True	True	114.75211215019226	117.7360520362854	[['b', 115.66365098953247]]	2.0	seen	False	True	0.9136509895324708	2.98393988609314	1.0	25.0	1626284075.4012	False		False	0.0	244.34450006484985	34.0
03	ses-013	27	images_fmri/pie/pie_06s.jpg	unseen	5562	464	6	None	1169.0	16632.0	6.0	unseen-between	1	3	119.22	2.98	False	True	119.21968197822572	122.19804096221924	[['x', 121.2872519493103]]	-1.0	unseen	False	False	2.067251949310304	2.9783589839935303	1.0	26.0	1626284079.8688	False		False			
03	ses-013	28	images_fmri/stapler/stapler_02s.jpg	seen	7178	599	2	None	1540.0	21755.0	2.0	seen-between	2	3	123.69	2.98	True	False	123.68772101402284	126.66507911682127	[['b', 125.27131009101868], ['a', 126.37219405174255]]	-1.0	unseen	True	False	1.581310091018679	2.977358102798462	1.0	27.0	1626284084.3368	False		False	7.0	0.0	208.0
03	ses-013	29	images_fmri/thumbtack/thumbtack_02s.jpg	seen	7682	641	2	None	1655.0	23364.0	2.0	seen-between	2	3	128.16	2.98	True	True	128.15107893943787	131.131196975708	[['a', 129.57590293884277]]	-2.0	unseen	True	True	1.4159029388427768	2.9801180362701416	1.0	28.0	1626284088.8002	False		False	7.0	0.0	196.0
03	ses-013	30	images_fmri/skunk/skunk_06s.jpg	seen	6822	569	6	None	1460.0	20699.0	6.0	seen-within	2	3	132.63	2.98	True	False	132.63259601593018	135.59934496879578	[['x', 133.53837895393372]]	2.0	seen	False	True	0.9083789539337204	2.9667489528656006	1.0	29.0	1626284093.2817	False		False	0.0	62.58139991760254	14.0
03	ses-013	31	images_fmri/boar/boar_02s.jpg	seen	794	67	2	None	152.0	2316.0	2.0	seen-between	2	3	137.1	2.98	False	True	137.10075902938843	140.08124899864197	[['a', 138.72232007980347], ['b', 139.7427921295166]]	1.0	seen	False	False	1.6223200798034725	2.98048996925354	1.0	30.0	1626284097.7498	False		False	7.0	0.0	376.0
03	ses-013	32	images_fmri/beaver/beaver_02s.jpg	seen	506	43	2	None	108.0	1629.0	2.0	seen-between	2	3	141.57	2.98	True	False	141.5686800479889	144.54766416549683	[['a', 144.4711720943451]]	-2.0	unseen	True	True	2.9011720943451	2.9789841175079346	1.0	31.0	1626284102.2178	False		False	7.0	0.0	225.0
03	ses-013	33	images_fmri/gargoyle/gargoyle_06s.jpg	seen	3174	265	6	None	658.0	9451.0	6.0	seen-within	2	3	146.04	2.98	True	True	146.03101801872253	149.01865410804749	[['b', 147.06422400474548]]	2.0	seen	False	True	1.0242240047454914	2.987636089324951	1.0	32.0	1626284106.6801	False		False	0.0	625.6145000457764	98.0
03	ses-013	34	images_fmri/bear/bear_06n.jpg	seen	498	42	6	None	106.0	1596.0	6.0	seen-within	2	3	150.51	2.98	True	False	150.50102305412292	153.48645496368408	[['x', 151.42315816879272]]	2.0	seen	False	True	0.9131581687927336	2.985431909561157	1.0	33.0	1626284111.1501	False		False	0.0	44.70110011100769	10.0
03	ses-013	35	images_fmri/pretzel/pretzel_02s.jpg	seen	5942	496	2	None	1240.0	17637.0	2.0	seen-within-between	3	3	154.98	2.98	False	False	154.98480105400083	157.94734406471252	[['b', 156.45629811286926]]	-1.0	unseen	True	False	1.476298112869273	2.96254301071167	1.0	34.0	1626284115.6339	False		False	7.0	0.0	283.0
03	ses-013	36	images_fmri/chalkboard/chalkboard_02s.jpg	seen	1574	132	2	None	304.0	4425.0	2.0	seen-between-within	3	3	159.45	2.98	True	False	159.45289397239685	162.4356861114502	[['x', 160.36625909805298]]	2.0	seen	False	True	0.91625909805299	2.9827921390533447	1.0	35.0	1626284120.1020	False		False	0.0	414.2067000865936	72.0
03	ses-013	37	images_fmri/brush/brush_02s.jpg	seen	1046	88	2	None	206.0	3105.0	2.0	seen-between	2	3	163.92	2.98	False	True	163.9193229675293	166.89706206321716	[['y', 165.80847811698914], ['x', 166.62979102134705]]	-2.0	unseen	True	True	1.888478116989148	2.977739095687866	1.0	36.0	1626284124.5684	False		False	7.0	0.0	315.0
03	ses-013	38	images_fmri/altar/altar_02s.jpg	seen	74	7	2	None	17.0	233.0	2.0	seen-between-within	3	3	168.39	2.98	True	True	168.38382601737976	171.36949801445007	[['b', 169.196613073349]]	2.0	seen	False	True	0.8066130733490127	2.9856719970703125	1.0	37.0	1626284129.0329	False		False	0.0	71.51420021057129	16.0
03	ses-013	39	images_fmri/bunkbed/bunkbed_02s.jpg	seen	1142	96	2	None	223.0	3330.0	2.0	seen-within-between	3	3	172.86	2.98	True	True	172.85105204582214	175.835755109787	[['b', 173.89366102218628]]	2.0	seen	False	True	1.0336610221862657	2.984703063964844	1.0	38.0	1626284133.5001	False		False	7.0	0.0	363.0
03	ses-013	40	images_fmri/ball/ball_02s.jpg	seen	314	27	2	None	60.0	881.0	2.0	seen-within-between	3	3	177.32999999999996	2.98	True	True	177.33412313461304	180.29693794250488	[['b', 178.794988155365]]	2.0	seen	False	True	1.4649881553650346	2.9628148078918457	1.0	39.0	1626284137.9832	False		False	7.0	0.0	264.0
03	ses-013	41	images_fmri/jellyfish/jellyfish_06s.jpg	unseen	4014	335	6	None	846.0	12096.0	6.0	unseen-between	1	3	181.8	2.98	True	True	181.8008689880371	184.78034496307373	[['y', 183.9192271232605]]	1.0	seen	True	False	2.1192271232604867	2.979475975036621	1.0	40.0	1626284142.4500	False		False			
03	ses-013	42	images_fmri/odometer/odometer_06s.jpg	seen	5142	429	6	None	1072.0	15241.0	6.0	seen-within	2	3	186.27	2.98	False	False	186.2658610343933	189.2510380744934	[['x', 187.34301710128784]]	2.0	seen	False	True	1.0730171012878316	2.9851770401000977	1.0	41.0	1626284146.9149	False		False	0.0	129.6282000541687	29.0
03	ses-013	43	images_fmri/scanner/scanner_02s.jpg	seen	6482	541	2	None	1376.0	19543.0	2.0	seen-between-within	3	3	190.74	2.98	False	False	190.73338413238525	193.71906208992004	[['x', 191.8841519355774]]	2.0	seen	False	True	1.1441519355773837	2.98567795753479	1.0	42.0	1626284151.3825	False		False	0.0	773.1345999240875	131.0
03	ses-013	44	images_fmri/basket/basket_02s.jpg	seen	422	36	2	None	83.0	1231.0	2.0	seen-within-between	3	3	195.21	2.98	True	True	195.2168400287628	198.1796901226044	[['a', 196.62121510505676]]	-2.0	unseen	True	True	1.4112151050567547	2.9628500938415527	1.0	43.0	1626284155.8659	False		False	7.0	0.0	480.0
03	ses-013	45	images_fmri/tweezers/tweezers_06s.jpg	seen	8082	674	6	None	1740.0	24527.0	6.0	seen-within	2	3	199.68	2.98	False	True	199.68413496017456	202.65139293670651	[['b', 200.49328303337097]]	2.0	seen	False	True	0.8132830333709649	2.9672579765319824	1.0	44.0	1626284160.3332	False		False	0.0	183.28349995613098	41.0
03	ses-013	46	images_fmri/steak/steak_06s.jpg	unseen	7206	601	6	None	1545.0	21829.0	6.0	unseen-within	1	3	204.15	2.98	False	False	204.14695501327515	207.1294929981232	[['b', 206.29630613327026], ['y', 207.8961091041565]]	-1.0	unseen	False	False	2.146306133270258	2.9825379848480225	1.0	45.0	1626284164.7960	False		False			
03	ses-013	47	images_fmri/milk/milk_06s.jpg	unseen	4782	399	6	None	1002.0	14265.0	6.0	unseen-between	1	3	208.62	2.98	True	False	208.6127541065216	211.6017780303955	[['a', 209.73023200035095]]	-2.0	unseen	False	True	1.1102320003509476	2.9890239238739014	1.0	46.0	1626284169.2618	False		False			
03	ses-013	48	images_fmri/warthog/warthog_06s.jpg	unseen	8334	695	6	None	1782.0	25121.0	6.0	unseen-within	1	3	213.09	2.98	True	True	213.0831949710846	216.06273007392883	[['a', 214.33583116531372]]	-2.0	unseen	False	True	1.2458311653137173	2.9795351028442383	1.0	47.0	1626284173.7323	False		False			
03	ses-013	49	images_fmri/thumbtack/thumbtack_02s.jpg	seen	7682	641	2	None	1655.0	23364.0	2.0	seen-between-within	3	3	217.56	2.98	False	False	217.5663390159607	220.5337381362915	[['x', 218.51140093803406]]	2.0	seen	False	True	0.9514009380340552	2.9673991203308105	1.0	48.0	1626284178.2154	False		False	0.0	89.4151999950409	20.0
03	ses-013	50	images_fmri/llama/llama_06s.jpg	seen	4470	373	6	None	939.0	13410.0	6.0	seen-within	2	3	222.03	2.98	True	True	222.03297209739685	225.01372599601743	[['b', 222.9189350605011]]	2.0	seen	False	True	0.8889350605010975	2.980753898620605	1.0	49.0	1626284182.6821	False		False	0.0	219.0310001373291	49.0
03	ses-013	51	images_fmri/frog/frog_06s.jpg	unseen	3126	261	6	None	645.0	9287.0	6.0	unseen-within	1	3	226.5	2.98	False	True	226.50106406211853	229.47926712036133	[['y', 228.00612497329712]]	-2.0	unseen	False	True	1.5061249732971191	2.978203058242798	1.0	50.0	1626284187.1501	False		False			
03	ses-013	52	images_fmri/flyswatter/flyswatter_02s.jpg	seen	3038	254	2	None	624.0	9003.0	2.0	seen-between-within	3	3	230.97	2.98	False	False	230.9680299758911	233.9487330913544	[['x', 231.81597805023193]]	2.0	seen	False	True	0.8459780502319347	2.980703115463257	1.0	51.0	1626284191.6171	False		False	0.0	169.8636999130249	38.0
03	ses-013	53	images_fmri/avocado/avocado_06s.jpg	unseen	246	21	6	None	44.0	609.0	6.0	unseen-within	1	3	235.44	2.98	True	False	235.42983102798465	238.41226410865784	[['a', 237.53094696998596]]	-2.0	unseen	False	True	2.090946969985964	2.9824330806732178	1.0	52.0	1626284196.0789	False		False			
03	ses-013	54	images_fmri/tag/tag_06s.jpg	unseen	7530	628	6	None	1617.0	22831.0	6.0	unseen-between	1	3	239.91	2.98	False	False	239.91600608825684	242.87893509864807	[['y', 241.3018341064453]]	-2.0	unseen	False	True	1.391834106445316	2.962929010391236	1.0	53.0	1626284200.5651	False		False			
03	ses-013	55	images_fmri/barnacle/barnacle_06n.jpg	unseen	402	34	6	None	76.0	1129.0	6.0	unseen-between	1	3	244.38	2.98	False	False	244.38260102272037	247.3620991706848	[['y', 246.30103516578674]]	-2.0	unseen	False	True	1.921035165786748	2.979498147964477	1.0	54.0	1626284205.0317	False		False			
03	ses-013	56	images_fmri/omelet/omelet_02s.jpg	seen	5162	431	2	None	1077.0	15309.0	2.0	seen-between-within	3	3	248.85	2.98	False	True	248.8508710861206	251.8343231678009	[['b', 249.87290000915527]]	2.0	seen	False	True	1.0229000091552791	2.983452081680298	1.0	55.0	1626284209.5000	False		False	0.0	236.91589999198914	53.0
03	ses-013	57	images_fmri/steak/steak_06s.jpg	seen	7206	601	6	None	1545.0	21829.0	6.0	seen-within	2	3	253.32	2.98	True	False	253.3176760673523	256.3006629943848	[['x', 254.29185795783997]]	2.0	seen	False	True	0.9718579578399726	2.9829869270324707	1.0	56.0	1626284213.9668	False		False	0.0	49.17079997062683	11.0
03	ses-013	58	images_fmri/egg/egg_02s.jpg	seen	2702	226	2	None	547.0	7936.0	2.0	seen-between	2	3	257.79	2.98	True	True	257.78252696990967	260.7619230747223	[['a', 259.1298990249634]]	-2.0	unseen	True	True	1.3398990249633584	2.979396104812622	1.0	57.0	1626284218.4316	False		False	7.0	0.0	179.0
03	ses-013	59	images_fmri/blackberry/blackberry_06s.jpg	unseen	690	58	6	None	136.0	2081.0	6.0	unseen-between	1	3	262.26	2.98	True	True	262.2653479576111	265.2341151237488	[['a', 263.29423213005066]]	-2.0	unseen	False	True	1.0342321300506685	2.9687671661376958	1.0	58.0	1626284222.9144	False		False			
03	ses-013	60	images_fmri/brush/brush_02s.jpg	seen	1046	88	2	None	206.0	3105.0	2.0	seen-between-within	3	3	266.73	2.98	False	False	266.732048034668	269.7157430648804	[['x', 267.60870003700256]]	2.0	seen	False	True	0.8787000370025453	2.9836950302124023	1.0	59.0	1626284227.3811	False		False	0.0	102.81270003318787	23.0
