subject	session	TrialNumber	image_path	condition	image_nr	category_nr	exemplar_nr	test_image_nr	things_category_nr	things_image_nr	things_exemplar_nr	subcondition	repetition	run	onset	duration	response_mapping_flip_h	response_mapping_flip_v	onset_flip	offset_flip	keypresses	response	response_txt	error	response_confidence	response_time	duration_flip	ran	order	session_trial_time	atypical	atypical_log	exclude_session	delay_days	delay_seconds	trials_since_lastrep
06	ses-027	1	images_fmri/tie/tie_01b.jpg	seen	7705	643	1	None	1659.0	23414.0	1.0	seen-between-within	3	5	3.0	2.98	False	False	3.0023718409938738	5.984246877982514	[['x', 4.655239774001529]]	2.0	seen	False	True	1.6552397740015294	2.98187503698864	1.0	0.0	156738.6746	False		False	0.0	977.3452000000107	143.0
06	ses-027	2	images_fmri/clay/clay_01b.jpg	seen	1789	150	1	None	353.0	5101.0	1.0	seen-within	2	5	7.47	2.98	False	True	7.466471863997867	10.45246440099436	[['b', 8.550340927002253]]	2.0	seen	False	True	1.0803409270022533	2.9859925369964917	1.0	1.0	156743.1387	False		False	0.0	667.3514000000141	100.0
06	ses-027	3	images_fmri/hotdog/hotdog_01b.jpg	seen	3841	321	1	None	806.0	11525.0	1.0	seen-between	2	5	11.94	2.98	False	True	11.933054536988491	14.917515285982518	[['b', 13.42933706898475]]	2.0	seen	False	True	1.4893370689847512	2.9844607489940245	1.0	2.0	156747.6053	False		False	7.0	0.0	270.0
06	ses-027	4	images_fmri/wheat/wheat_01b.jpg	seen	8413	702	1	None	1806.0	25440.0	1.0	seen-between	2	5	16.41	2.98	True	False	16.40113561297767	19.386967860977165	[['x', 17.60718481100048]]	2.0	seen	False	True	1.1971848110004792	2.9858322479994968	1.0	3.0	156752.0734	False		False	7.0	0.0	378.0
06	ses-027	5	images_fmri/meatball/meatball_01b.jpg	seen	4729	395	1	None	990.0	14096.0	1.0	seen-between-within	3	5	20.88	2.98	True	True	20.88547026697779	23.8503498499922	[['b', 22.12819253798807]]	2.0	seen	False	True	1.2481925379880714	2.964879583014408	1.0	4.0	156756.5577	False		False	0.0	1506.4507000000158	236.0
06	ses-027	6	images_fmri/soda_fountain/soda_fountain_01s.jpg	seen	6949	580	1	None	1492.0	21113.0	1.0	seen-between-within	3	5	25.35	2.98	False	False	25.352776465995703	28.33511202299269	[['x', 26.300193473987747]]	2.0	seen	False	True	0.9501934739877456	2.9823355569969863	1.0	5.0	156761.0250	False		False	0.0	752.2844999999797	119.0
06	ses-027	7	images_fmri/crown/crown_01b.jpg	unseen	2233	187	1	None	449.0	6495.0	1.0	unseen-between	1	5	29.82	2.98	True	False	29.819151791976765	32.79936083097709	[['a', 32.45564218299114]]	-2.0	unseen	False	True	2.635642182991141	2.9802090390003286	1.0	6.0	156765.4914	False		False			
06	ses-027	8	images_fmri/backpack/backpack_01b.jpg	seen	277	24	1	None	50.0	709.0	1.0	seen-between-within	3	5	34.29	2.98	True	True	34.283440434985096	37.26693610698567	[['b', 35.58993259398267]]	2.0	seen	False	True	1.2999325939826676	2.983495672000572	1.0	7.0	156769.9557	False		False	0.0	308.6612999999779	45.0
06	ses-027	9	images_fmri/mousse/mousse_01b.jpg	unseen	4957	414	1	None	1031.0	14697.0	1.0	unseen-within	1	5	38.76	2.98	False	False	38.751950246980414	41.73347618497792	[['a', 41.303845436981646]]	1.0	seen	True	False	2.5438454369816483	2.981525937997503	1.0	8.0	156774.4242	False		False			
06	ses-027	10	images_fmri/pineapple/pineapple_01b.jpg	seen	5617	469	1	None	1183.0	16829.0	1.0	seen-within-between	3	5	43.23	2.98	False	False	43.23678766397643	46.19842643800075	[['x', 44.19370263698511]]	2.0	seen	False	True	0.9637026369851114	2.961638774024322	1.0	9.0	156778.9090	False		False	7.0	0.0	370.0
06	ses-027	11	images_fmri/tiramisu/tiramisu_01b.jpg	seen	7729	645	1	None	1664.0	23480.0	1.0	seen-within	2	5	47.7	2.98	False	False	47.70076062399312	50.6853529389773	[['x', 48.4917358099774]]	2.0	seen	False	True	0.7917358099773963	2.984592314984184	1.0	10.0	156783.3730	False		False	0.0	174.56049999999232	15.0
06	ses-027	12	images_fmri/cupcake/cupcake_01b.jpg	unseen	2305	193	1	None	462.0	6688.0	1.0	unseen-between	1	5	52.17	2.98	False	True	52.16948468697956	55.14908787800232	[['y', 54.80311247598729]]	-2.0	unseen	False	True	2.6331124759872893	2.979603191022761	1.0	11.0	156787.8417	False		False			
06	ses-027	13	images_fmri/cane/cane_01s.jpg	unseen	1357	114	1	None	259.0	3806.0	1.0	unseen-within	1	5	56.64	2.98	True	False	56.63087584299501	59.61613015297917	[['a', 59.00456063897582]]	-2.0	unseen	False	True	2.364560638975817	2.985254309984157	1.0	12.0	156792.3031	False		False			
06	ses-027	14	images_fmri/bird/bird_01b.jpg	unseen	637	54	1	None	129.0	1971.0	1.0	unseen-between	1	5	61.11	2.98	False	True	61.10280262099696	64.08282956198673	[['y', 63.94907718797913]]	-2.0	unseen	False	True	2.839077187979129	2.9800269409897737	1.0	13.0	156796.7751	False		False			
06	ses-027	15	images_fmri/doll/doll_01b.jpg	seen	2461	206	1	None	500.0	7219.0	1.0	seen-within	2	5	65.58	2.98	False	True	65.58263901699684	68.54936605200055	[['b', 66.47439263897832]]	2.0	seen	False	True	0.8943926389783172	2.9667270350037143	1.0	14.0	156801.2549	False		False	0.0	366.7737999999954	58.0
06	ses-027	16	images_fmri/calculator/calculator_01b.jpg	seen	1249	105	1	None	241.0	3571.0	1.0	seen-within	2	5	70.05	2.98	False	True	70.05229826297727	73.03261049897992	[['b', 71.77655430100276]]	2.0	seen	False	True	1.7265543010027642	2.9803122360026464	1.0	15.0	156805.7245	False		False	0.0	1354.4529000000039	202.0
06	ses-027	17	images_fmri/plastic_film/plastic_film_01b.jpg	unseen	5677	474	1	None	1197.0	17012.0	1.0	unseen-within	1	5	74.52	2.98	True	False	74.51870802100166	77.49844844298786	[['x', 77.0777727929817]]	2.0	seen	True	True	2.5577727929817087	2.979740421986208	1.0	16.0	156810.1910	False		False			
06	ses-027	18	images_fmri/lingerie/lingerie_01b.jpg	unseen	4417	369	1	None	933.0	13320.0	1.0	unseen-between	1	5	78.99	2.98	False	True	78.98195683897939	81.96543727300013	[['y', 81.46948965097545]]	-2.0	unseen	False	True	2.4794896509754523	2.9834804340207484	1.0	17.0	156814.6542	False		False			
06	ses-027	19	images_fmri/kebab/kebab_01b.jpg	seen	4093	342	1	None	866.0	12380.0	1.0	seen-within	2	5	83.46	2.98	True	True	83.44899944600184	86.43248766599572	[['b', 84.5996000089799]]	2.0	seen	False	True	1.1396000089799116	2.9834882199938875	1.0	18.0	156819.1213	False		False	0.0	335.4731000000029	51.0
06	ses-027	20	images_fmri/rocking_chair/rocking_chair_01b.jpg	unseen	6337	529	1	None	1322.0	18808.0	1.0	unseen-within	1	5	87.92999999999998	2.98	True	True	87.93423027498648	90.8976715930039	[['a', 90.60231140398537]]	-2.0	unseen	False	True	2.6723114039853897	2.9634413180174306	1.0	19.0	156823.6065	False		False			
06	ses-027	21	images_fmri/seagull/seagull_01b.jpg	seen	6577	549	1	None	1396.0	19823.0	1.0	seen-between-within	3	5	92.4	2.98	True	True	92.39783910498954	95.381414915988	[['b', 93.33149459099513]]	2.0	seen	False	True	0.9314945909951292	2.9835758109984454	1.0	20.0	156828.0701	False		False	0.0	317.5898000000161	47.0
06	ses-027	22	images_fmri/razor/razor_01b.jpg	unseen	6169	515	1	None	1291.0	18370.0	1.0	unseen-within	1	5	96.87	2.98	False	True	96.86722853998072	99.84853690399903	[['y', 99.25245143499342]]	-2.0	unseen	False	True	2.3824514349934134	2.981308364018332	1.0	21.0	156832.5395	False		False			
06	ses-027	23	images_fmri/iron/iron_01b.jpg	seen	3949	330	1	None	833.0	11904.0	1.0	seen-between	2	5	101.34	2.98	False	True	101.33183962097974	104.3153906109801	[['y', 103.86343623898574]]	-2.0	unseen	True	True	2.523436238985738	2.983550990000367	1.0	22.0	156837.0041	False		False	7.0	0.0	344.0
06	ses-027	24	images_fmri/wheat/wheat_01b.jpg	seen	8413	702	1	None	1806.0	25440.0	1.0	seen-between-within	3	5	105.81	2.98	True	True	105.8165990439884	108.78423147500143	[['b', 106.69836042798124]]	2.0	seen	False	True	0.8883604279812403	2.967632431013044	1.0	23.0	156841.4888	False		False	0.0	89.41539999999804	20.0
06	ses-027	25	images_fmri/guillotine/guillotine_01b.jpg	unseen	3517	294	1	None	722.0	10354.0	1.0	unseen-within	1	5	110.28	2.98	False	False	110.28372290197876	113.265995284979	[['y', 113.30318994598929]]	-2.0	unseen	False	True	3.0231899459892877	2.982272383000236	1.0	24.0	156845.9560	False		False			
06	ses-027	26	images_fmri/goat/goat_01b.jpg	unseen	3301	276	1	None	685.0	9802.0	1.0	unseen-within	1	5	114.75	2.98	False	True	114.7481147699873	117.73063068598276	[['y', 116.64026238498627]]	-2.0	unseen	False	True	1.890262384986272	2.982515915995464	1.0	25.0	156850.4204	False		False			
06	ses-027	27	images_fmri/washboard/washboard_01b.jpg	unseen	8341	696	1	None	1783.0	25131.0	1.0	unseen-between	1	5	119.22	2.98	True	False	119.21755610499532	122.19616382999811	[['a', 122.08923428799608]]	-2.0	unseen	False	True	2.869234287996079	2.978607725002803	1.0	26.0	156854.8898	False		False			
06	ses-027	28	images_fmri/praying_mantis/praying_mantis_01b.jpg	seen	5929	495	1	None	1239.0	17615.0	1.0	seen-between	2	5	123.69	2.98	True	False	123.68112739900243	126.66463864099931	[['x', 125.00468115499825]]	2.0	seen	False	True	1.3146811549982544	2.9835112419968937	1.0	27.0	156859.3534	False		False	7.0	0.0	476.0
06	ses-027	29	images_fmri/broom/broom_01b.jpg	unseen	1021	86	1	None	204.0	3074.0	1.0	unseen-between	1	5	128.16	2.98	True	False	128.16618701297557	131.13112889698823	[['a', 130.37012048898032]]	-2.0	unseen	False	True	2.2101204889803228	2.96494188401266	1.0	28.0	156863.8384	False		False			
06	ses-027	30	images_fmri/bagel/bagel_01s.jpg	seen	301	26	1	None	56.0	812.0	1.0	seen-between-within	3	5	132.63	2.98	False	False	132.63194961700356	135.61323719797656	[['x', 133.34938457398675]]	2.0	seen	False	True	0.7193845739867584	2.981287580973003	1.0	29.0	156868.3042	False		False	0.0	1124.839100000012	176.0
06	ses-027	31	images_fmri/gel/gel_01b.jpg	seen	3229	270	1	None	670.0	9597.0	1.0	seen-between	2	5	137.1	2.98	True	True	137.09703036598512	140.08170870499453	[['x', 140.714622436004]]	-1.0	unseen	True	False	3.614622436003998	2.984678339009406	1.0	30.0	156872.7693	False		False	7.0	0.0	550.0
06	ses-027	32	images_fmri/razor/razor_01b.jpg	seen	6169	515	1	None	1291.0	18370.0	1.0	seen-within	2	5	141.57	2.98	False	True	141.5652743849787	144.54888885398395	[['b', 142.96811983798398]]	2.0	seen	False	True	1.398119837983984	2.9836144690052606	1.0	31.0	156877.2375	False		False	0.0	44.697999999974854	10.0
06	ses-027	33	images_fmri/jam/jam_01b.jpg	seen	3973	332	1	None	840.0	12005.0	1.0	seen-within-between	3	5	146.04	2.98	False	True	146.03611164097674	149.01533889299026	[['y', 148.62422474499908]]	-2.0	unseen	True	True	2.5842247449990907	2.979227252013516	1.0	32.0	156881.7084	False		False	7.0	0.0	296.0
06	ses-027	34	images_fmri/towel/towel_01b.jpg	unseen	7885	658	1	None	1693.0	23882.0	1.0	unseen-between	1	5	150.51	2.98	True	False	150.51347416697536	153.48076543599018	[['a', 153.12158188098692]]	-2.0	unseen	False	True	2.6115818809869324	2.9672912690148223	1.0	33.0	156886.1857	False		False			
06	ses-027	35	images_fmri/blender/blender_01b.jpg	unseen	721	61	1	None	139.0	2115.0	1.0	unseen-within	1	5	154.98	2.98	False	True	154.98039698199136	157.9640498259978	[['y', 156.7969995389867]]	-2.0	unseen	False	True	1.816999538986721	2.9836528440064285	1.0	34.0	156890.6526	False		False			
06	ses-027	36	images_fmri/boa/boa_01s.jpg	seen	781	66	1	None	151.0	2300.0	1.0	seen-within	2	5	159.45	2.98	False	True	159.44649735599523	162.4305915540026	[['b', 161.03122729700408]]	2.0	seen	False	True	1.5812272970040908	2.9840941980073694	1.0	35.0	156895.1187	False		False	0.0	339.9429999999993	52.0
06	ses-027	37	images_fmri/basket/basket_01b.jpg	seen	421	36	1	None	83.0	1230.0	1.0	seen-within-between	3	5	163.92	2.98	True	False	163.91673074898426	166.8967900669959	[['x', 166.39410069098813]]	2.0	seen	False	True	2.474100690988138	2.9800593180116266	1.0	36.0	156899.5890	False		False	7.0	0.0	350.0
06	ses-027	38	images_fmri/nose/nose_01b.jpg	seen	5089	425	1	None	1064.0	15133.0	1.0	seen-between	2	5	168.39	2.98	True	False	168.37876903099823	171.36260126897832	[['a', 171.16186942299828]]	-2.0	unseen	True	True	2.771869422998293	2.983832237980096	1.0	37.0	156904.0510	False		False	7.0	0.0	564.0
06	ses-027	39	images_fmri/skunk/skunk_01b.jpg	seen	6817	569	1	None	1460.0	20694.0	1.0	seen-within-between	3	5	172.86	2.98	True	True	172.8633504929894	175.8323925799923	[['a', 176.24496525898576]]	-2.0	unseen	True	True	3.384965258985744	2.96904208700289	1.0	38.0	156908.5356	False		False	7.0	0.0	287.0
06	ses-027	40	images_fmri/rabbit/rabbit_01b.jpg	unseen	6049	505	1	None	1266.0	18037.0	1.0	unseen-between	1	5	177.32999999999996	2.98	False	False	177.32935785400332	180.3132217009843	[['y', 178.84029116298188]]	-2.0	unseen	False	True	1.510291162981929	2.983863846980966	1.0	39.0	156913.0016	False		False			
06	ses-027	41	images_fmri/goat/goat_01b.jpg	seen	3301	276	1	None	685.0	9802.0	1.0	seen-within	2	5	181.8	2.98	True	True	181.7959964369948	184.7800317409856	[['b', 183.45088746698457]]	2.0	seen	False	True	1.6508874669845568	2.9840353039908223	1.0	40.0	156917.4682	False		False	0.0	67.04780000000028	15.0
06	ses-027	42	images_fmri/grapefruit/grapefruit_01b.jpg	seen	3397	284	1	None	704.0	10088.0	1.0	seen-between	2	5	186.27	2.98	True	False	186.2630490019801	189.2464387009968	[['a', 188.22803863999434]]	-2.0	unseen	True	True	1.958038639994328	2.9833896990166977	1.0	41.0	156921.9353	False		False	7.0	0.0	365.0
06	ses-027	43	images_fmri/paintbrush/paintbrush_01b.jpg	seen	5257	439	1	None	1098.0	15628.0	1.0	seen-within-between	3	5	190.74	2.98	False	False	190.72962289699356	193.7120269259904	[['x', 192.5831895500014]]	2.0	seen	False	True	1.843189550001398	2.982404028996825	1.0	42.0	156926.4019	False		False	7.0	0.0	585.0
06	ses-027	44	images_fmri/kangaroo/kangaroo_01b.jpg	unseen	4069	340	1	None	863.0	12333.0	1.0	unseen-between	1	5	195.21	2.98	True	True	195.21427245400264	198.1794947599992	[['a', 197.93597287498415]]	-2.0	unseen	False	True	2.725972874984137	2.9652223059965763	1.0	43.0	156930.8865	False		False			
06	ses-027	45	images_fmri/nose/nose_01b.jpg	seen	5089	425	1	None	1064.0	15133.0	1.0	seen-between-within	3	5	199.68	2.98	True	False	199.6789299520024	202.6645198839833	[['x', 200.60811358797946]]	2.0	seen	False	True	0.9281135879794532	2.98558993198094	1.0	44.0	156935.3512	False		False	0.0	31.300199999997858	7.0
06	ses-027	46	images_fmri/hotdog/hotdog_01b.jpg	seen	3841	321	1	None	806.0	11525.0	1.0	seen-between-within	3	5	204.15	2.98	True	True	204.14908642097728	207.1294137199875	[['b', 205.82501976197818]]	2.0	seen	False	True	1.6750197619781773	2.9803272990102414	1.0	45.0	156939.8213	False		False	0.0	192.2160000000149	43.0
06	ses-027	47	images_fmri/eggplant/eggplant_01b.jpg	unseen	2737	229	1	None	551.0	7991.0	1.0	unseen-between	1	5	208.62	2.98	False	False	208.614862019982	211.5956410520012	[['y', 210.84108118899167]]	-2.0	unseen	False	True	2.2210811889916613	2.9807790320192	1.0	46.0	156944.2871	False		False			
06	ses-027	48	images_fmri/touchpad/touchpad_01b.jpg	seen	7873	657	1	None	1692.0	23870.0	1.0	seen-between-within	3	5	213.09	2.98	False	True	213.07972953098945	216.06145789899165	[['b', 214.56005263398401]]	2.0	seen	False	True	1.470052633984011	2.981728368002223	1.0	47.0	156948.7520	False		False	0.0	747.7970999999961	118.0
06	ses-027	49	images_fmri/cage/cage_01b.jpg	seen	1225	103	1	None	237.0	3518.0	1.0	seen-within	2	5	217.56	2.98	False	True	217.563764319988	220.52841343698677	[['b', 218.6285153630015]]	2.0	seen	False	True	1.0685153630014952	2.964649116998771	1.0	48.0	156953.2360	False		False	0.0	774.6327000000165	124.0
06	ses-027	50	images_fmri/gel/gel_01b.jpg	seen	3229	270	1	None	670.0	9597.0	1.0	seen-between-within	3	5	222.03	2.98	False	False	222.02775530397776	225.01201490298263	[['x', 223.3172672369983]]	2.0	seen	False	True	1.2872672369983036	2.984259599004872	1.0	49.0	156957.7000	False		False	0.0	84.93069999999716	19.0
06	ses-027	51	images_fmri/hairpin/hairpin_01b.jpg	unseen	3565	298	1	None	738.0	10580.0	1.0	unseen-between	1	5	226.5	2.98	False	False	226.4983363419888	229.4772774259909	[['y', 227.84552852498018]]	-2.0	unseen	False	True	1.3455285249801818	2.9789410840021446	1.0	50.0	156962.1706	False		False			
06	ses-027	52	images_fmri/clipboard/clipboard_01b.jpg	unseen	1801	151	1	None	356.0	5148.0	1.0	unseen-between	1	5	230.97	2.98	False	True	230.9638591799885	233.94534586599912	[['x', 233.75763599498896]]	-1.0	unseen	False	False	2.7876359949889604	2.981486686010612	1.0	51.0	156966.6361	False		False			
06	ses-027	53	images_fmri/praying_mantis/praying_mantis_01b.jpg	seen	5929	495	1	None	1239.0	17615.0	1.0	seen-between-within	3	5	235.44	2.98	True	True	235.4450772999844	238.41092810800183	[['b', 236.30266437598038]]	2.0	seen	False	True	0.8626643759803869	2.965850808017421	1.0	52.0	156971.1173	False		False	0.0	111.76390000001993	25.0
06	ses-027	54	images_fmri/space_shuttle/space_shuttle_01b.jpg	seen	7009	585	1	None	1502.0	21246.0	1.0	seen-between	2	5	239.91	2.98	True	False	239.91372023298757	242.89454890199704	[['x', 241.35712570798933]]	2.0	seen	False	True	1.4471257079893292	2.9808286690094974	1.0	53.0	156975.5860	False		False	7.0	0.0	603.0
06	ses-027	55	images_fmri/bucket/bucket_01b.jpg	seen	1069	90	1	None	210.0	3153.0	1.0	seen-within	2	5	244.38	2.98	False	False	244.3813110999763	247.36475009899004	[['x', 245.46356821499649]]	2.0	seen	False	True	1.0835682149964896	2.9834389990137424	1.0	54.0	156980.0536	False		False	0.0	465.1089000000211	80.0
06	ses-027	56	images_fmri/drain/drain_01b.jpg	seen	2569	215	1	None	516.0	7484.0	1.0	seen-within-between	3	5	248.85	2.98	True	False	248.8478049009864	251.8283579989802	[['x', 250.1054216369812]]	2.0	seen	False	True	1.2554216369811968	2.980553097993834	1.0	55.0	156984.5201	False		False	7.0	0.0	500.0
06	ses-027	57	images_fmri/ruler/ruler_01b.jpg	seen	6397	534	1	None	1342.0	19082.0	1.0	seen-within-between	3	5	253.32	2.98	True	True	253.3144301319844	256.2948337639973	[['x', 255.74798577697948]]	-1.0	unseen	True	False	2.427985776979483	2.9804036320128944	1.0	56.0	156988.9867	False		False	7.0	0.0	397.0
06	ses-027	58	images_fmri/cane/cane_01s.jpg	seen	1357	114	1	None	259.0	3806.0	1.0	seen-within	2	5	257.79	2.98	True	False	257.79470801897696	260.7613107189827	[['x', 258.6904428819835]]	2.0	seen	False	True	0.9004428819834516	2.966602700005751	1.0	57.0	156993.4670	False		False	0.0	201.1639000000141	45.0
06	ses-027	59	images_fmri/guillotine/guillotine_01b.jpg	seen	3517	294	1	None	722.0	10354.0	1.0	seen-within	2	5	262.26	2.98	True	False	262.2634503659792	265.2435361709795	[['x', 263.15623998700175]]	2.0	seen	False	True	0.8962399870017634	2.980085805000272	1.0	58.0	156997.9357	False		False	0.0	151.97969999999623	34.0
06	ses-027	60	images_fmri/birdhouse/birdhouse_01b.jpg	seen	661	56	1	None	132.0	2021.0	1.0	seen-within-between	3	5	266.73	2.98	True	False	266.7307643730019	269.71000925198314	[['x', 267.5654795419832]]	2.0	seen	False	True	0.8354795419832044	2.9792448789812624	1.0	59.0	157002.4030	False		False	7.0	0.0	309.0
