subject	session	TrialNumber	image_path	condition	image_nr	category_nr	exemplar_nr	test_image_nr	things_category_nr	things_image_nr	things_exemplar_nr	subcondition	repetition	run	onset	duration	response_mapping_flip_h	response_mapping_flip_v	onset_flip	offset_flip	keypresses	response	response_txt	error	response_confidence	response_time	duration_flip	ran	order	session_trial_time	atypical	atypical_log	exclude_session	delay_days	delay_seconds	trials_since_lastrep
03	ses-036	1	images_fmri/egg/egg_01b.jpg	unseen	2701	226	1	None	547.0	7935.0	1.0	unseen-between	1	4	3.0	2.98	False	True	2.999580327188596	5.966508806217462	[['y', 3.8444803850725293]]	-2.0	unseen	False	True	0.8444803850725293	2.9669284790288657	1.0	0.0	1392941.6605	False		False			
03	ses-036	2	images_fmri/bird/bird_01b.jpg	unseen	637	54	1	None	129.0	1971.0	1.0	unseen-within	1	4	7.47	2.98	True	False	7.466658726101741	10.452266093110666	[['a', 8.512275449000299]]	-2.0	unseen	False	True	1.0422754490002992	2.9856073670089245	1.0	1.0	1392946.1276	False		False			
03	ses-036	3	images_fmri/snail/snail_01b.jpg	seen	6877	574	1	None	1477.0	20917.0	1.0	seen-between	2	4	11.94	2.98	True	True	11.934561202069744	14.92174302903004	[['a', 12.965229203226045]]	-2.0	unseen	True	True	1.0252292032260453	2.9871818269602954	1.0	2.0	1392950.5955	False		False	7.0	0.0	303.0
03	ses-036	4	images_fmri/lizard/lizard_01b.jpg	seen	4453	372	1	None	938.0	13393.0	1.0	seen-within-between	3	4	16.41	2.98	True	True	16.406462844228372	19.384526207111776	[['a', 17.72760308207944], ['x', 18.38309082807973]]	-2.0	unseen	True	True	1.3176030820794402	2.978063362883404	1.0	3.0	1392955.0674	False		False	7.0	0.0	384.0
03	ses-036	5	images_fmri/altar/altar_01b.jpg	unseen	73	7	1	None	17.0	232.0	1.0	unseen-within	1	4	20.88	2.98	True	False	20.8723777232226	23.85489974520169	[['a', 21.78129531419836]]	-2.0	unseen	False	True	0.9012953141983608	2.9825220219790936	1.0	4.0	1392959.5333	False		False			
03	ses-036	6	images_fmri/tattoo/tattoo_01b.jpg	seen	7573	632	1	None	1630.0	23011.0	1.0	seen-between	2	4	25.35	2.98	False	True	25.354294065153223	28.321081849047918	[['y', 26.560523318126798]]	-2.0	unseen	True	True	1.2105233181267965	2.966787783894688	1.0	5.0	1392964.0152	False		False	7.0	0.0	313.0
03	ses-036	7	images_fmri/wire_cutters/wire_cutters_01b.jpg	unseen	8521	711	1	None	1830.0	25769.0	1.0	unseen-within	1	4	29.82	2.98	False	False	29.82128849811852	32.804642643081024	[['y', 30.634405246004462]]	-2.0	unseen	False	True	0.814405246004462	2.9833541449625045	1.0	6.0	1392968.4822	False		False			
03	ses-036	8	images_fmri/backpack/backpack_01b.jpg	seen	277	24	1	None	50.0	709.0	1.0	seen-within-between	3	4	34.29	2.98	True	False	34.28988444618881	37.2677013061475	[['y', 36.3465402640868]]	1.0	seen	False	False	2.0565402640867987	2.9778168599586934	1.0	7.0	1392972.9508	False		False	7.0	0.0	342.0
03	ses-036	9	images_fmri/wire/wire_01s.jpg	seen	8509	710	1	None	1829.0	25756.0	1.0	seen-within-between	3	4	38.76	2.98	False	True	38.75587483216077	41.734044855227694	[['a', 40.079499174142256]]	1.0	seen	False	False	1.3194991741422584	2.978170023066923	1.0	8.0	1392977.4168	False		False	7.0	0.0	321.0
03	ses-036	10	images_fmri/bagel/bagel_01s.jpg	unseen	301	26	1	None	56.0	812.0	1.0	unseen-between	1	4	43.23	2.98	True	False	43.221264547202736	46.20638112421148	[['a', 44.347128541208804]]	-2.0	unseen	False	True	1.1171285412088068	2.985116577008739	1.0	9.0	1392981.8822	False		False			
03	ses-036	11	images_fmri/crystal1/crystal1_01b.jpg	unseen	2257	189	1	None	455.0	6569.0	1.0	unseen-within	1	4	47.7	2.98	True	False	47.70341807114892	50.67162712407298	[['a', 48.86298583005555]]	-2.0	unseen	False	True	1.162985830055547	2.968209052924067	1.0	10.0	1392986.3644	False		False			
03	ses-036	12	images_fmri/wire_cutters/wire_cutters_01b.jpg	seen	8521	711	1	None	1830.0	25769.0	1.0	seen-within	2	4	52.17	2.98	False	False	52.17076092003845	55.15422196709551	[['x', 53.30121480021626]]	2.0	seen	False	True	1.131214800216256	2.9834610470570624	1.0	11.0	1392990.8317	False		False	0.0	22.349500000011176	5.0
03	ses-036	13	images_fmri/worm/worm_01b.jpg	seen	8569	715	1	None	1837.0	25859.0	1.0	seen-between-within	3	4	56.64	2.98	True	True	56.63908082921989	59.61849139304832	[['b', 57.543426716001704]]	2.0	seen	False	True	0.9034267160017038	2.979410563828424	1.0	12.0	1392995.3000	False		False	0.0	375.4614999999758	62.0
03	ses-036	14	images_fmri/meat_grinder/meat_grinder_01b.jpg	seen	4717	394	1	None	989.0	14084.0	1.0	seen-within-between	3	4	61.11	2.98	False	True	61.10174428601749	64.0843271901831	[['a', 63.17949378909543]]	1.0	seen	False	False	2.069493789095432	2.9825829041656107	1.0	13.0	1392999.7627	False		False	7.0	0.0	419.0
03	ses-036	15	images_fmri/basket/basket_01b.jpg	unseen	421	36	1	None	83.0	1230.0	1.0	unseen-within	1	4	65.58	2.98	False	False	65.56820966000669	68.55556316114962	[['y', 66.5382349321153]]	-2.0	unseen	False	True	0.9582349321153032	2.987353501142934	1.0	14.0	1393004.2292	False		False			
03	ses-036	16	images_fmri/rattle/rattle_01b.jpg	unseen	6157	514	1	None	1288.0	18326.0	1.0	unseen-within	1	4	70.05	2.98	True	True	70.05346862622537	73.02159495418891	[['a', 71.0036755441688]]	-2.0	unseen	False	True	0.953675544168803	2.968126327963546	1.0	15.0	1393008.7144	False		False			
03	ses-036	17	images_fmri/iceskate/iceskate_01b.jpg	seen	3901	326	1	None	824.0	11776.0	1.0	seen-between-within	3	4	74.52	2.98	False	False	74.52207748708315	77.50318624614738	[['x', 75.34281571721658]]	2.0	seen	False	True	0.8228157172165851	2.981108759064228	1.0	16.0	1393013.1830	False		False	0.0	1021.6969999999274	165.0
03	ses-036	18	images_fmri/railing/railing_01b.jpg	unseen	6121	511	1	None	1278.0	18197.0	1.0	unseen-within	1	4	78.99	2.98	True	False	78.98877202207223	81.96706321206875	[['a', 80.4862767891027]]	-2.0	unseen	False	True	1.4962767891027084	2.9782911899965256	1.0	17.0	1393017.6497	False		False			
03	ses-036	19	images_fmri/lime/lime_01b.jpg	unseen	4393	367	1	None	931.0	13291.0	1.0	unseen-within	1	4	83.46	2.98	False	False	83.45519175310619	86.43712948006578	[['y', 84.37907844921574]]	-2.0	unseen	False	True	0.9190784492157462	2.981937726959586	1.0	18.0	1393022.1161	False		False			
03	ses-036	20	images_fmri/guitar/guitar_01b.jpg	seen	3529	295	1	None	724.0	10382.0	1.0	seen-between	2	4	87.92999999999998	2.98	False	True	87.93639297713526	90.9049403180834	[['y', 88.83183557214215]]	-2.0	unseen	True	True	0.9018355721421756	2.9685473409481347	1.0	19.0	1393026.5973	False		False	7.0	0.0	357.0
03	ses-036	21	images_fmri/pom-pom/pom-pom_01b.jpg	seen	5797	484	1	None	1219.0	17341.0	1.0	seen-within	2	4	92.4	2.98	False	False	92.40294074104168	95.38440749817528	[['x', 94.01636728807352]]	2.0	seen	False	True	1.6163672880735191	2.981466757133603	1.0	20.0	1393031.0639	False		False	0.0	201.12959999986924	23.0
03	ses-036	22	images_fmri/credit_card/credit_card_01b.jpg	unseen	2173	182	1	None	439.0	6339.0	1.0	unseen-between	1	4	96.87	2.98	True	True	96.87147709121928	99.84949438716284	[['a', 98.8730041210074]]	-2.0	unseen	False	True	2.003004121007393	2.978017295943573	1.0	21.0	1393035.5324	False		False			
03	ses-036	23	images_fmri/scanner/scanner_01b.jpg	unseen	6481	541	1	None	1376.0	19542.0	1.0	unseen-between	1	4	101.34	2.98	False	True	101.33670668001288	104.321204258129	[['y', 102.31199838710018]]	-2.0	unseen	False	True	0.9719983871001716	2.984497578116134	1.0	22.0	1393039.9977	False		False			
03	ses-036	24	images_fmri/lime/lime_01b.jpg	seen	4393	367	1	None	931.0	13291.0	1.0	seen-within	2	4	105.81	2.98	True	False	105.80195298115724	108.78408046904951	[['x', 106.61211934313178]]	2.0	seen	False	True	0.8021193431317784	2.982127487892285	1.0	23.0	1393044.4629	False		False	0.0	22.34679999994114	5.0
03	ses-036	25	images_fmri/snail/snail_01b.jpg	seen	6877	574	1	None	1477.0	20917.0	1.0	seen-between-within	3	4	110.28	2.98	True	False	110.285227940185	113.255762321176	[['x', 111.3870602271054]]	2.0	seen	False	True	1.1070602271053929	2.970534380991012	1.0	24.0	1393048.9462	False		False	0.0	98.35069999983534	22.0
03	ses-036	26	images_fmri/basket/basket_01b.jpg	seen	421	36	1	None	83.0	1230.0	1.0	seen-within	2	4	114.75	2.98	True	False	114.75278458301908	117.73579202010296	[['x', 115.63599692517892]]	2.0	seen	False	True	0.8859969251789153	2.98300743708387	1.0	25.0	1393053.4137	False		False	0.0	49.18449999997392	11.0
03	ses-036	27	images_fmri/tent/tent_01b.jpg	seen	7621	636	1	None	1644.0	23207.0	1.0	seen-between-within	3	4	119.22	2.98	False	False	119.218940918101	122.20284308609553	[['x', 120.02960577700287]]	2.0	seen	False	True	0.8096057770028722	2.983902167994529	1.0	26.0	1393057.8799	False		False	0.0	379.9248999999836	63.0
03	ses-036	28	images_fmri/guitar/guitar_01b.jpg	seen	3529	295	1	None	724.0	10382.0	1.0	seen-between-within	3	4	123.69	2.98	True	True	123.68551728921013	126.67088347207756	[['b', 124.60837276419625]]	2.0	seen	False	True	0.9183727641962492	2.9853661828674376	1.0	27.0	1393062.3465	False		False	0.0	35.749199999962	8.0
03	ses-036	29	images_fmri/brush/brush_01s.jpg	unseen	1045	88	1	None	206.0	3104.0	1.0	unseen-between	1	4	128.16	2.98	False	True	128.15388238313608	131.13222794909962	[['y', 130.17992549901828]]	-2.0	unseen	False	True	2.019925499018285	2.9783455659635365	1.0	28.0	1393066.8148	False		False			
03	ses-036	30	images_fmri/bread/bread_01b.jpg	seen	973	82	1	None	195.0	2944.0	1.0	seen-between	2	4	132.63	2.98	True	False	132.6334091220051	135.59842361905612	[['a', 134.25218300404958]]	-2.0	unseen	True	True	1.6221830040495888	2.9650144970510155	1.0	29.0	1393071.2944	False		False	7.0	0.0	278.0
03	ses-036	31	images_fmri/crystal1/crystal1_01b.jpg	seen	2257	189	1	None	455.0	6569.0	1.0	seen-within	2	4	137.1	2.98	False	False	137.10192350414582	140.08283157413825	[['y', 138.49503300222568], ['x', 140.51289293006994]]	-2.0	unseen	True	True	1.3950330022256878	2.980908069992438	1.0	30.0	1393075.7629	False		False	0.0	89.39849999989383	20.0
03	ses-036	32	images_fmri/acorn/acorn_01b.jpg	seen	1	1	1	None	4.0	43.0	1.0	seen-between	2	4	141.57	2.98	True	True	141.56603854103014	144.54947317717597	[['a', 143.19478666805662]]	-2.0	unseen	True	True	1.624786668056629	2.98343463614583	1.0	31.0	1393080.2270	False		False	7.0	0.0	442.0
03	ses-036	33	images_fmri/antenna/antenna_01b.jpg	unseen	157	14	1	None	28.0	380.0	1.0	unseen-between	1	4	146.04	2.98	False	True	146.03549138107337	149.01670109201223	[['y', 147.058721606154]]	-2.0	unseen	False	True	1.0187216061540028	2.981209710938856	1.0	32.0	1393084.6964	False		False			
03	ses-036	34	images_fmri/bison/bison_01b.jpg	seen	673	57	1	None	135.0	2063.0	1.0	seen-within	2	4	150.51	2.98	True	False	150.50369330006652	153.48691388918087	[['x', 151.46090921922587]]	2.0	seen	False	True	0.9509092192258776	2.983220589114353	1.0	33.0	1393089.1646	False		False	0.0	1204.9584999999497	206.0
03	ses-036	35	images_fmri/oatmeal/oatmeal_01s.jpg	seen	5113	427	1	None	1070.0	15208.0	1.0	seen-within-between	3	4	154.98	2.98	True	True	154.98596605914645	157.94781083613634	[['y', 156.88554236921482]]	1.0	seen	False	False	1.905542369214828	2.961844776989892	1.0	34.0	1393093.6469	False		False	7.0	0.0	215.0
03	ses-036	36	images_fmri/bolt/bolt_01b.jpg	seen	829	70	1	None	160.0	2439.0	1.0	seen-between	2	4	159.45	2.98	True	True	159.45077105308883	162.4314292150084	[['a', 160.83881664904766]]	-2.0	unseen	True	True	1.3888166490476692	2.980658161919564	1.0	35.0	1393098.1117	False		False	7.0	0.0	251.0
03	ses-036	37	images_fmri/railing/railing_01b.jpg	seen	6121	511	1	None	1278.0	18197.0	1.0	seen-within	2	4	163.92	2.98	False	True	163.9153438420035	166.903317369055	[['b', 164.78416383615695]]	2.0	seen	False	True	0.8641638361569619	2.9879735270515084	1.0	36.0	1393102.5763	False		False	0.0	84.92660000012256	19.0
03	ses-036	38	images_fmri/mushroom/mushroom_01b.jpg	unseen	4981	416	1	None	1041.0	14826.0	1.0	unseen-within	1	4	168.39	2.98	True	False	168.38419597106986	171.36981572117656	[['a', 169.37469996418804]]	-2.0	unseen	False	True	0.984699964188053	2.985619750106707	1.0	37.0	1393107.0452	False		False			
03	ses-036	39	images_fmri/chalice/chalice_01s.jpg	seen	1549	130	1	None	302.0	4395.0	1.0	seen-within-between	3	4	172.86	2.98	True	True	172.85153815313242	175.83111408003606	[['b', 174.13940934604034]]	2.0	seen	False	True	1.2794093460403246	2.9795759269036357	1.0	38.0	1393111.5125	False		False	7.0	0.0	499.0
03	ses-036	40	images_fmri/undershirt/undershirt_01s.jpg	seen	8125	678	1	None	1745.0	24593.0	1.0	seen-between-within	3	4	177.32999999999996	2.98	False	True	177.33377272821963	180.30285621015355	[['b', 178.15042897616513]]	2.0	seen	False	True	0.8204289761651751	2.9690834819339216	1.0	39.0	1393115.9947	False		False	0.0	784.3469000000041	133.0
03	ses-036	41	images_fmri/shell2/shell2_01b.jpg	seen	6637	554	1	None	1419.0	20127.0	1.0	seen-within	2	4	181.8	2.98	True	True	181.80156306107529	184.78451125114225	[['b', 182.84649425721727]]	2.0	seen	False	True	1.0464942572172615	2.9829481900669634	1.0	40.0	1393120.4625	False		False	0.0	545.3214999998454	100.0
03	ses-036	42	images_fmri/envelope/envelope_01b.jpg	unseen	2785	233	1	None	559.0	8095.0	1.0	unseen-within	1	4	186.27	2.98	True	True	186.26950118504465	189.24899523402564	[['a', 187.3835501531139]]	-2.0	unseen	False	True	1.1135501531138914	2.979494048980996	1.0	41.0	1393124.9305	False		False			
03	ses-036	43	images_fmri/whip/whip_01b.jpg	seen	8449	705	1	None	1810.0	25488.0	1.0	seen-between-within	3	4	190.74	2.98	True	False	190.7321398111526	193.7179901341442	[['x', 191.604351881193]]	2.0	seen	False	True	0.864351881192988	2.9858503229916096	1.0	42.0	1393129.3931	False		False	0.0	650.2298999999184	103.0
03	ses-036	44	images_fmri/teapot/teapot_01b.jpg	seen	7585	633	1	None	1635.0	23089.0	1.0	seen-between	2	4	195.21	2.98	False	False	195.2022760850377	198.1803601970896	[['y', 196.93603192013688]]	-2.0	unseen	True	True	1.726031920136876	2.9780841120518744	1.0	43.0	1393133.8632	False		False	7.0	0.0	456.0
03	ses-036	45	images_fmri/moth/moth_01b.jpg	seen	4909	410	1	None	1024.0	14585.0	1.0	seen-between	2	4	199.68	2.98	False	False	199.6853531571105	202.651072087232	[['y', 200.62948976713233]]	-2.0	unseen	True	True	0.94948976713232	2.965718930121511	1.0	44.0	1393138.3463	False		False	7.0	0.0	311.0
03	ses-036	46	images_fmri/taco/taco_01b.jpg	seen	7501	626	1	None	1614.0	22788.0	1.0	seen-within-between	3	4	204.15	2.98	False	False	204.15045877802183	207.1310730671976	[['b', 206.04228737507947]]	-1.0	unseen	True	False	1.8922873750794624	2.980614289175719	1.0	45.0	1393142.8114	False		False	7.0	0.0	381.0
03	ses-036	47	images_fmri/stapler/stapler_01b.jpg	unseen	7177	599	1	None	1540.0	21754.0	1.0	unseen-between	1	4	208.62	2.98	False	False	208.61886514816436	211.5982450961601	[['y', 209.52011480904184]]	-2.0	unseen	False	True	0.9001148090418383	2.979379947995767	1.0	46.0	1393147.2798	False		False			
03	ses-036	48	images_fmri/computer_screen/computer_screen_01b.jpg	seen	1969	165	1	None	396.0	5690.0	1.0	seen-between	2	4	213.09	2.98	True	True	213.0813168170862	216.0648731070105	[['a', 214.1146241610404]]	-2.0	unseen	True	True	1.024624161040407	2.9835562899243087	1.0	47.0	1393151.7423	False		False	7.0	0.0	275.0
03	ses-036	49	images_fmri/bird/bird_01b.jpg	seen	637	54	1	None	129.0	1971.0	1.0	seen-within	2	4	217.56	2.98	False	True	217.5667163070757	220.53416376607493	[['b', 218.3845687841531]]	2.0	seen	False	True	0.8245687841530867	2.9674474589992315	1.0	48.0	1393156.2277	False		False	0.0	210.10009999992326	47.0
03	ses-036	50	images_fmri/table/table_01b.jpg	seen	7477	624	1	None	1609.0	22725.0	1.0	seen-between	2	4	222.03	2.98	False	False	222.0333630591631	225.0001391752157	[['y', 223.10424991021864]]	-2.0	unseen	True	True	1.07424991021864	2.9667761160526425	1.0	49.0	1393160.6943	False		False	7.0	0.0	389.0
03	ses-036	51	images_fmri/bread/bread_01b.jpg	seen	973	82	1	None	195.0	2944.0	1.0	seen-between-within	3	4	226.5	2.98	False	True	226.4998152211774	229.48360495222727	[['b', 227.3496713291388]]	2.0	seen	False	True	0.8496713291388005	2.98378973104991	1.0	50.0	1393165.1608	False		False	0.0	93.86639999994077	21.0
03	ses-036	52	images_fmri/robot/robot_01b.jpg	seen	6325	528	1	None	1319.0	18764.0	1.0	seen-within-between	3	4	230.97	2.98	True	False	230.9679946100805	233.9478933971841	[['x', 233.84544822620228]]	2.0	seen	False	True	2.8754482262022805	2.9798987871035933	1.0	51.0	1393169.6290	False		False	7.0	0.0	250.0
03	ses-036	53	images_fmri/moose/moose_01b.jpg	unseen	4861	406	1	None	1019.0	14516.0	1.0	unseen-between	1	4	235.44	2.98	True	True	235.4294439901132	238.4128550181631	[['a', 236.73052043910138], ['x', 237.43189799622633], ['a', 237.86239056219347]]	-2.0	unseen	False	True	1.2905204391013854	2.9834110280498862	1.0	52.0	1393174.0904	False		False			
03	ses-036	54	images_fmri/moth/moth_01b.jpg	seen	4909	410	1	None	1024.0	14585.0	1.0	seen-between-within	3	4	239.91	2.98	True	True	239.9164507871028	242.8844977042172	[['b', 240.73237171722576]]	2.0	seen	False	True	0.8223717172257636	2.968046917114407	1.0	53.0	1393178.5774	False		False	0.0	40.23109999997541	9.0
03	ses-036	55	images_fmri/radish/radish_01b.jpg	seen	6097	509	1	None	1275.0	18157.0	1.0	seen-within-between	3	4	244.38	2.98	False	False	244.380846478045	247.36364971008152	[['b', 246.5303195931483], ['a', 247.4905786451418]]	-1.0	unseen	True	False	2.1503195931483106	2.982803232036531	1.0	54.0	1393183.0418	False		False	7.0	0.0	326.0
03	ses-036	56	images_fmri/bus/bus_01b.jpg	unseen	1177	99	1	None	227.0	3380.0	1.0	unseen-between	1	4	248.85	2.98	False	False	248.84668069216423	251.8308632450644	[['y', 249.82823386020027]]	-2.0	unseen	False	True	0.9782338602002768	2.9841825529001653	1.0	55.0	1393187.5076	False		False			
03	ses-036	57	images_fmri/rhinoceros/rhinoceros_01b.jpg	unseen	6241	521	1	None	1307.0	18606.0	1.0	unseen-between	1	4	253.32	2.98	False	False	253.3175396511797	256.2955711351242	[['b', 255.37916272715665]]	-1.0	unseen	False	False	2.059162727156661	2.978031483944505	1.0	56.0	1393191.9785	False		False			
03	ses-036	58	images_fmri/okra/okra_01b.jpg	seen	5149	430	1	None	1075.0	15281.0	1.0	seen-within	2	4	257.79	2.98	False	True	257.78349242103286	260.7674347141292	[['b', 258.60935720521957]]	2.0	seen	False	True	0.8193572052195464	2.9839422930963337	1.0	57.0	1393196.4444	False		False	0.0	514.0240999998059	93.0
03	ses-036	59	images_fmri/footbath/footbath_01s.jpg	seen	3073	257	1	None	632.0	9116.0	1.0	seen-within-between	3	4	262.26	2.98	True	True	262.265101979021	265.2288298041094	[['y', 264.6006929001305], ['b', 265.07180443406105]]	1.0	seen	False	False	2.3406929001305343	2.9637278250884265	1.0	58.0	1393200.9261	False		False	7.0	0.0	342.0
03	ses-036	60	images_fmri/chinchilla/chinchilla_01b.jpg	seen	1705	143	1	None	333.0	4809.0	1.0	seen-between-within	3	4	266.73	2.98	False	True	266.7295930800028	269.7154729010072	[['b', 267.643936756067]]	2.0	seen	False	True	0.9139367560669598	2.985879821004346	1.0	59.0	1393205.3905	False		False	0.0	829.0464999999385	143.0
