subject	session	TrialNumber	image_path	condition	image_nr	category_nr	exemplar_nr	test_image_nr	things_category_nr	things_image_nr	things_exemplar_nr	subcondition	repetition	run	onset	duration	response_mapping_flip_h	response_mapping_flip_v	onset_flip	offset_flip	keypresses	response	response_txt	error	response_confidence	response_time	duration_flip	ran	order	session_trial_time	atypical	atypical_log	exclude_session	delay_days	delay_seconds	trials_since_lastrep
01	ses-025	1	images_fmri/airbag/airbag_05s.jpg	unseen	17	2	5	None	8.0	102.0	5.0	unseen-between	1	6	3.0	2.98	True	False	2.999665998038836	5.983398654963821	[['x', 4.825698380009271]]	2.0	seen	True	True	1.8256983800092712	2.9837326569249853	1.0	0.0	618144.3699	False		False			
01	ses-025	2	images_fmri/footprint/footprint_06s.jpg	seen	3090	258	6	None	633.0	9133.0	6.0	seen-between	2	6	7.47	2.98	True	True	7.466304427944124	10.449566983035766	[['x', 9.061924568959512]]	-1.0	unseen	True	False	1.591924568959512	2.983262555091642	1.0	1.0	618148.8365	False		False	7.0	0.0	368.0
01	ses-025	3	images_fmri/ferret/ferret_05s.jpg	unseen	2885	241	5	None	579.0	8376.0	5.0	unseen-between	1	6	11.94	2.98	True	False	11.932899652980268	14.9162057810463	[['b', 13.521897993981838]]	-1.0	unseen	False	False	1.5818979939818387	2.983306128066033	1.0	2.0	618153.3031	False		False			
01	ses-025	4	images_fmri/thimble/thimble_06n.jpg	seen	7674	640	6	None	1650.0	23303.0	6.0	seen-within-between	3	6	16.41	2.98	True	False	16.399329336942174	19.38262654095888	[['b', 17.943929975968786]]	-1.0	unseen	True	False	1.5339299759687854	2.983297204016708	1.0	3.0	618157.7695	False		False	7.0	0.0	615.0
01	ses-025	5	images_fmri/hay/hay_05s.jpg	unseen	3677	307	5	None	762.0	10913.0	5.0	unseen-within	1	6	20.88	2.98	True	True	20.882558429031636	23.849193461006507	[['x', 21.95809360803105]]	-1.0	unseen	False	False	1.0780936080310504	2.9666350319748744	1.0	4.0	618162.2527	False		False			
01	ses-025	6	images_fmri/pickle/pickle_05s.jpg	seen	5549	463	5	None	1168.0	16615.0	5.0	seen-within	2	6	25.35	2.98	False	False	25.34907526499592	28.33239804999903	[['b', 27.492801937973127]]	-1.0	unseen	True	False	2.1428019379731253	2.9833227850031108	1.0	5.0	618166.7193	False		False	0.0	539.9361000000499	91.0
01	ses-025	7	images_fmri/key/key_05s.jpg	seen	4121	344	5	None	870.0	12445.0	5.0	seen-within	2	6	29.82	2.98	False	True	29.81562262296211	32.798938193009235	[['x', 31.705865512019955]]	-1.0	unseen	True	False	1.8858655120199543	2.983315570047125	1.0	6.0	618171.1858	False		False	0.0	513.1200999999419	85.0
01	ses-025	8	images_fmri/groundhog/groundhog_05n.jpg	unseen	3485	291	5	None	719.0	10303.0	5.0	unseen-within	1	6	34.29	2.98	False	False	34.28216117504053	37.26547554996796	[['b', 35.27818618004676], ['b', 37.09982007194776]]	-1.0	unseen	False	False	0.9881861800467604	2.983314374927432	1.0	7.0	618175.6523	False		False			
01	ses-025	9	images_fmri/thermos/thermos_05s.jpg	seen	7649	638	5	None	1648.0	23269.0	5.0	seen-within	2	6	38.76	2.98	False	False	38.748711496940814	41.73200368194375	[['b', 41.097822963958606]]	-1.0	unseen	True	False	2.337822963958608	2.983292185002938	1.0	8.0	618180.1189	False		False	0.0	1257.201299999957	234.0
01	ses-025	10	images_fmri/cupcake/cupcake_05s.jpg	seen	2309	193	5	None	462.0	6692.0	5.0	seen-within	2	6	43.23	2.98	False	False	43.23194816301111	46.1985859379638							2.9666377749526878	1.0	9.0	618184.6021	False		False	0.0	651.6999000000069	116.0
01	ses-025	11	images_fmri/thumbtack/thumbtack_05s.jpg	unseen	7685	641	5	None	1655.0	23367.0	5.0	unseen-within	1	6	47.7	2.98	True	False	47.69848247105256	50.68172601296101	[['b', 49.656705799046904]]	-1.0	unseen	False	False	1.956705799046901	2.9832435419084504	1.0	10.0	618189.0687	False		False			
01	ses-025	12	images_fmri/meat_grinder/meat_grinder_05s.jpg	unseen	4721	394	5	None	989.0	14088.0	5.0	unseen-between	1	6	52.17	2.98	True	True	52.16504057694692	55.14849567704368	[['x', 55.67370743595529]]	-1.0	unseen	False	False	3.503707435955292	2.983455100096762	1.0	11.0	618193.5352	False		False			
01	ses-025	13	images_fmri/flyswatter/flyswatter_05s.jpg	unseen	3041	254	5	None	624.0	9006.0	5.0	unseen-between	1	6	56.64	2.98	True	False	56.63168370700441	59.61517103202641	[['b', 57.943031216971576]]	-1.0	unseen	False	False	1.3030312169715756	2.983487325021997	1.0	12.0	618198.0019	False		False			
01	ses-025	14	images_fmri/carrot/carrot_05s.jpg	seen	1445	121	5	None	278.0	4079.0	5.0	seen-within	2	6	61.11	2.98	True	False	61.09857719403226	64.08173413097393							2.9831569369416684	1.0	13.0	618202.4688	False		False	0.0	477.3548000000883	77.0
01	ses-025	15	images_fmri/match/match_06s.jpg	seen	4698	392	6	None	984.0	14025.0	6.0	seen-between	2	6	65.58	2.98	True	True	65.58134654001333	68.54817149194423	[['x', 67.00554671301506]]	-1.0	unseen	True	False	1.4255467130150663	2.966824951930903	1.0	14.0	618206.9515	False		False	7.0	0.0	316.0
01	ses-025	16	images_fmri/shirt/shirt_06s.jpg	seen	6678	557	6	None	1423.0	20185.0	6.0	seen-within-between	3	6	70.05	2.98	True	True	70.04790843103547	73.03126380394679	[['x', 71.43576384801418]]	-1.0	unseen	True	False	1.3857638480141787	2.983355372911319	1.0	15.0	618211.4181	False		False	7.0	0.0	644.0
01	ses-025	17	images_fmri/mandolin/mandolin_06s.jpg	seen	4590	383	6	None	966.0	13767.0	6.0	seen-between-within	3	6	74.52	2.98	False	False	74.51446814299561	77.49790468800347	[['a', 77.14855787798297]]	1.0	seen	False	False	2.6285578779829706	2.983436545007862	1.0	16.0	618215.8847	False		False	0.0	1154.403900000034	211.0
01	ses-025	18	images_fmri/nose/nose_06s.jpg	seen	5094	425	6	None	1064.0	15138.0	6.0	seen-between	2	6	78.99	2.98	False	False	78.9810037149582	81.96436683705542	[['b', 80.61042201996315]]	-1.0	unseen	True	False	1.6204220199631578	2.9833631220972165	1.0	17.0	618220.3512	False		False	7.0	0.0	498.0
01	ses-025	19	images_fmri/bear/bear_06n.jpg	seen	498	42	6	None	106.0	1596.0	6.0	seen-between-within	3	6	83.46	2.98	True	False	83.44758289598394	86.43073598202318	[['x', 85.26663982204627]]	2.0	seen	False	True	1.8066398220462787	2.9831530860392377	1.0	18.0	618224.8178	False		False	0.0	508.6369999999879	84.0
01	ses-025	20	images_fmri/oar/oar_06s.jpg	seen	5106	426	6	None	1069.0	15200.0	6.0	seen-between	2	6	87.92999999999998	2.98	True	False	87.93077836104203	90.89742099505384	[['b', 91.61342863598838]]	-1.0	unseen	True	False	3.683428635988406	2.966642634011805	1.0	19.0	618229.3010	False		False	7.0	0.0	486.0
01	ses-025	21	images_fmri/deer/deer_05s.jpg	unseen	2357	197	5	None	477.0	6901.0	5.0	unseen-within	1	6	92.4	2.98	True	True	92.39731879904866	95.38065067201389	[['x', 93.6836719410494]]	-1.0	unseen	False	False	1.2836719410493913	2.983331872965209	1.0	20.0	618233.7675	False		False			
01	ses-025	22	images_fmri/footprint/footprint_06s.jpg	seen	3090	258	6	None	633.0	9133.0	6.0	seen-between-within	3	6	96.87	2.98	False	False	96.86387752799784	99.8472507840488							2.9833732560509816	1.0	21.0	618238.2341	False		False	0.0	89.3976000000257	20.0
01	ses-025	23	images_fmri/radish/radish_05s.jpg	unseen	6101	509	5	None	1275.0	18161.0	5.0	unseen-within	1	6	101.34	2.98	False	False	101.3304313919507	104.31369830598123	[['a', 101.34161629201844], ['b', 102.96534271596465]]	1.0	seen	True	False	0.0016162920184399	2.983266914030537	1.0	22.0	618242.7006	False		False			
01	ses-025	24	images_fmri/gel/gel_05s.jpg	unseen	3233	270	5	None	670.0	9601.0	5.0	unseen-between	1	6	105.81	2.98	True	False	105.79746754094958	108.780567187001	[['b', 107.60219779494219]]	-1.0	unseen	False	False	1.792197794942183	2.9830996460514143	1.0	23.0	618247.1677	False		False			
01	ses-025	25	images_fmri/crutch/crutch_05s.jpg	unseen	2249	188	5	None	453.0	6547.0	5.0	unseen-between	1	6	110.28	2.98	True	True	110.28034481604118	113.2470215409994	[['b', 111.59435644303448]]	2.0	seen	True	True	1.3143564430344838	2.966676724958233	1.0	24.0	618251.6505	False		False			
01	ses-025	26	images_fmri/granola/granola_05s.jpg	unseen	3377	282	5	None	702.0	10055.0	5.0	unseen-between	1	6	114.75	2.98	False	True	114.74674560897984	117.7303001199616	[['x', 118.36435875494499]]	-1.0	unseen	False	False	3.614358754944988	2.983554510981776	1.0	25.0	618256.1169	False		False			
01	ses-025	27	images_fmri/tree_trunk/tree_trunk_06s.jpg	seen	7998	667	6	None	1710.0	24119.0	6.0	seen-within-between	3	6	119.22	2.98	True	False	119.21330296702216	122.19665508694015							2.9833521199179813	1.0	26.0	618260.5835	False		False	7.0	0.0	414.0
01	ses-025	28	images_fmri/mouse1/mouse1_06s.jpg	seen	4938	412	6	None	1027.0	14637.0	6.0	seen-within-between	3	6	123.69	2.98	False	True	123.67984354600776	126.66320459498093	[['a', 123.70616701699328], ['x', 124.77951868297532]]	1.0	seen	False	False	0.016167016993279	2.983361048973165	1.0	27.0	618265.0500	False		False	7.0	0.0	405.0
01	ses-025	29	images_fmri/dish/dish_06s.jpg	seen	2418	202	6	None	490.0	7085.0	6.0	seen-between-within	3	6	128.16	2.98	False	True	128.1631258180132	131.1297248339979	[['x', 130.8671258239774]]	-1.0	unseen	True	False	2.7071258239774068	2.966599015984684	1.0	28.0	618269.5333	False		False	0.0	1181.2360000000335	217.0
01	ses-025	30	images_fmri/subway/subway_05s.jpg	unseen	7325	611	5	None	1579.0	22298.0	5.0	unseen-between	1	6	132.63	2.98	False	True	132.62961261998862	135.61291795398574	[['x', 134.6741255519446]]	-1.0	unseen	False	False	2.044125551944603	2.983305333997123	1.0	29.0	618273.9998	False		False			
01	ses-025	31	images_fmri/thumbtack/thumbtack_05s.jpg	seen	7685	641	5	None	1655.0	23367.0	5.0	seen-within	2	6	137.1	2.98	True	True	137.0961638019653	140.07945543795358							2.98329163598828	1.0	30.0	618278.4664	False		False	0.0	89.39770000008866	20.0
01	ses-025	32	images_fmri/crib/crib_06s.jpg	seen	2190	183	6	None	442.0	6394.0	6.0	seen-between-within	3	6	141.57	2.98	True	True	141.5627308950061	144.54601156094577	[['b', 142.73012800503056]]	2.0	seen	False	True	1.1601280050305718	2.983280665939674	1.0	31.0	618282.9329	False		False	0.0	383.1064999999944	73.0
01	ses-025	33	images_fmri/bowl/bowl_06n.jpg	seen	894	75	6	None	178.0	2707.0	6.0	seen-between-within	3	6	146.04	2.98	True	False	146.0292742609745	149.01238094898872	[['x', 147.50404372403864]]	2.0	seen	False	True	1.464043724038646	2.983106688014232	1.0	32.0	618287.3995	False		False	0.0	454.62160000007134	89.0
01	ses-025	34	images_fmri/nose/nose_06s.jpg	seen	5094	425	6	None	1064.0	15138.0	6.0	seen-between-within	3	6	150.51	2.98	False	False	150.51250425598118	153.4791242290521							2.9666199730709195	1.0	33.0	618291.8827	False		False	0.0	71.53149999992456	16.0
01	ses-025	35	images_fmri/pistachio/pistachio_05s.jpg	unseen	5657	472	5	None	1189.0	16909.0	5.0	unseen-between	1	6	154.98	2.98	False	True	154.97901326802094	157.96264793898445	[['x', 156.13709584600292]]	-1.0	unseen	False	False	1.1570958460029317	2.983634670963511	1.0	34.0	618296.3492	False		False			
01	ses-025	36	images_fmri/chili/chili_05s.jpg	unseen	1685	141	5	None	328.0	4748.0	5.0	unseen-between	1	6	159.45	2.98	True	True	159.4457531690132	162.428993901005	[['x', 160.5710474649677]]	-1.0	unseen	False	False	1.121047464967717	2.9832407319918275	1.0	35.0	618300.8159	False		False			
01	ses-025	37	images_fmri/raft/raft_05s.jpg	unseen	6113	510	5	None	1276.0	18176.0	5.0	unseen-between	1	6	163.92	2.98	False	False	163.91231970197987	166.8955716319615	[['b', 165.26113881496713]]	-1.0	unseen	False	False	1.3411388149671382	2.983251929981634	1.0	36.0	618305.2825	False		False			
01	ses-025	38	images_fmri/oar/oar_06s.jpg	seen	5106	426	6	None	1069.0	15200.0	6.0	seen-between-within	3	6	168.39	2.98	False	True	168.3786876819795	171.362025890965	[['b', 169.86998503294308]]	2.0	seen	False	True	1.479985032943091	2.983338208985515	1.0	37.0	618309.7489	False		False	0.0	80.44790000002831	18.0
01	ses-025	39	images_fmri/television/television_05s.jpg	seen	7613	635	5	None	1642.0	23180.0	5.0	seen-within	2	6	172.86	2.98	False	True	172.86191466194578	175.828655811958	[['b', 174.64885818003677]]	2.0	seen	False	True	1.788858180036755	2.96674115001224	1.0	38.0	618314.2321	False		False	0.0	235.59389999997802	40.0
01	ses-025	40	images_fmri/mango/mango_06s.jpg	seen	4602	384	6	None	967.0	13779.0	6.0	seen-within-between	3	6	177.32999999999996	2.98	True	False	177.32850216899533	180.31176052696537							2.983258357970044	1.0	39.0	618318.6987	False		False	7.0	0.0	535.0
01	ses-025	41	images_fmri/match/match_06s.jpg	seen	4698	392	6	None	984.0	14025.0	6.0	seen-between-within	3	6	181.8	2.98	False	True	181.79511148005255	184.7783350279788	[['b', 183.5966833169805]]	2.0	seen	False	True	1.7966833169804772	2.9832235479261726	1.0	40.0	618323.1653	False		False	0.0	116.21380000002682	26.0
01	ses-025	42	images_fmri/table/table_05s.jpg	seen	7481	624	5	None	1609.0	22729.0	5.0	seen-within	2	6	186.27	2.98	False	False	186.26155327900776	189.24488765804563	[['x', 187.30493814696092]]	2.0	seen	False	True	1.0349381469609114	2.983334379037842	1.0	41.0	618327.6317	False		False	0.0	445.671800000011	87.0
01	ses-025	43	images_fmri/tumbleweed/tumbleweed_06s.jpg	seen	8046	671	6	None	1728.0	24358.0	6.0	seen-between	2	6	190.74	2.98	False	True	190.7281146129826	193.71144794800784	[['b', 194.72307523502968]]	2.0	seen	False	True	3.9830752350296734	2.983333335025236	1.0	42.0	618332.0983	False		False	7.0	0.0	607.0
01	ses-025	44	images_fmri/deer/deer_05s.jpg	seen	2357	197	5	None	477.0	6901.0	5.0	seen-within	2	6	195.21	2.98	False	True	195.2113197139697	198.1780826059403	[['b', 199.07078369602095]]	2.0	seen	False	True	3.8607836960209454	2.966762891970575	1.0	43.0	618336.5815	False		False	0.0	102.81400000001304	23.0
01	ses-025	45	images_fmri/clipboard/clipboard_05s.jpg	unseen	1805	151	5	None	356.0	5152.0	5.0	unseen-between	1	6	199.68	2.98	True	True	199.67786606994923	202.6611711679725	[['x', 200.68778043496422]]	-1.0	unseen	False	False	1.007780434964218	2.9833050980232656	1.0	44.0	618341.0481	False		False			
01	ses-025	46	images_fmri/radish/radish_05s.jpg	seen	6101	509	5	None	1275.0	18161.0	5.0	seen-within	2	6	204.15	2.98	False	False	204.144416818046	207.12789096101187	[['b', 205.50666747894138], ['x', 207.1951742209494]]	-1.0	unseen	True	False	1.3566674789413753	2.9834741429658607	1.0	45.0	618345.5146	False		False	0.0	102.81400000001304	23.0
01	ses-025	47	images_fmri/milk/milk_06s.jpg	seen	4782	399	6	None	1002.0	14265.0	6.0	seen-between	2	6	208.62	2.98	False	True	208.61113763903268	211.59456906002012							2.983431420987472	1.0	46.0	618349.9813	False		False	7.0	0.0	505.0
01	ses-025	48	images_fmri/hay/hay_05s.jpg	seen	3677	307	5	None	762.0	10913.0	5.0	seen-within	2	6	213.09	2.98	True	False	213.07799698296003	216.06097843497992	[['b', 214.73362029599957], ['x', 215.5259235140402]]	-1.0	unseen	True	False	1.6436202959995685	2.982981452019885	1.0	47.0	618354.4482	False		False	0.0	192.19550000003073	43.0
01	ses-025	49	images_fmri/girl/girl_05s.jpg	unseen	3257	272	5	None	677.0	9699.0	5.0	unseen-within	1	6	217.56	2.98	False	False	217.5607849980006	220.52746589004528	[['b', 218.55259405297693]]	-1.0	unseen	False	False	0.9925940529769264	2.9666808920446783	1.0	48.0	618358.9310	False		False			
01	ses-025	50	images_fmri/pea/pea_06s.jpg	seen	5394	450	6	None	1129.0	16079.0	6.0	seen-between-within	3	6	222.03	2.98	True	False	222.0273110000417	225.01066693803293	[['x', 224.88561147102155]]	2.0	seen	False	True	2.8556114710215468	2.9833559379912917	1.0	49.0	618363.3975	False		False	0.0	396.50639999995474	76.0
01	ses-025	51	images_fmri/groundhog/groundhog_05n.jpg	seen	3485	291	5	None	719.0	10303.0	5.0	seen-within	2	6	226.5	2.98	False	False	226.4938299129717	229.4772432469763	[['b', 227.52955888095312]]	-1.0	unseen	True	False	1.0295588809531182	2.983413334004581	1.0	50.0	618367.8640	False		False	0.0	192.21169999998529	43.0
01	ses-025	52	images_fmri/tumbleweed/tumbleweed_06s.jpg	seen	8046	671	6	None	1728.0	24358.0	6.0	seen-between-within	3	6	230.97	2.98	False	False	230.96038617100567	233.94373269600328							2.9833465249976143	1.0	51.0	618372.3306	False		False	0.0	40.23230000003241	9.0
01	ses-025	53	images_fmri/celery/celery_06s.jpg	seen	1518	127	6	None	292.0	4265.0	6.0	seen-between-within	3	6	235.44	2.98	True	True	235.42681498103772	238.41021413798444	[['y', 237.25767558801454]]	1.0	seen	False	False	1.8176755880145377	2.983399156946689	1.0	52.0	618376.7970	False		False	0.0	956.9919000000227	176.0
01	ses-025	54	images_fmri/t-shirt/t-shirt_06s.jpg	seen	7458	622	6	None	1607.0	22701.0	6.0	seen-between-within	3	6	239.91	2.98	True	True	239.9101605999749	242.87667360599156	[['b', 241.4633715399541]]	2.0	seen	False	True	1.5533715399540995	2.966513006016612	1.0	53.0	618381.2803	False		False	0.0	1409.1971999999369	268.0
01	ses-025	55	images_fmri/girl/girl_05s.jpg	seen	3257	272	5	None	677.0	9699.0	5.0	seen-within	2	6	244.38	2.98	True	True	244.37671224598307	247.36003417696335	[['b', 247.38088567904197]]	2.0	seen	False	True	3.000885679041972	2.98332193098031	1.0	54.0	618385.7469	False		False	0.0	26.815900000045076	6.0
01	ses-025	56	images_fmri/drill/drill_05s.jpg	unseen	2621	219	5	None	521.0	7563.0	5.0	unseen-between	1	6	248.85	2.98	False	True	248.8432537369663	251.82655132294167							2.9832975859753788	1.0	55.0	618390.2134	False		False			
01	ses-025	57	images_fmri/calculator/calculator_06s.jpg	seen	1254	105	6	None	241.0	3576.0	6.0	seen-within-between	3	6	253.32	2.98	False	True	253.30979754799048	256.2930540109519	[['x', 255.1504148549866]]	-1.0	unseen	True	False	1.8304148549866	2.9832564629614358	1.0	56.0	618394.6800	False		False	7.0	0.0	421.0
01	ses-025	58	images_fmri/cactus/cactus_05n.jpg	unseen	1217	102	5	None	236.0	3510.0	5.0	unseen-between	1	6	257.79	2.98	False	True	257.79317324701697	260.759861789993	[['x', 258.84745826001745]]	-1.0	unseen	False	False	1.0574582600174267	2.966688542976044	1.0	57.0	618399.1634	False		False			
01	ses-025	59	images_fmri/milk/milk_06s.jpg	seen	4782	399	6	None	1002.0	14265.0	6.0	seen-between-within	3	6	262.26	2.98	True	True	262.2597602319438	265.2429566649953							2.9831964330514893	1.0	58.0	618403.6299	False		False	0.0	53.6486000000732	12.0
01	ses-025	60	images_fmri/granite/granite_05s.jpg	seen	3365	281	5	None	701.0	10041.0	5.0	seen-within	2	6	266.73	2.98	True	False	266.72613239102066	269.70955346897244	[['x', 266.9712225700496]]	2.0	seen	False	True	0.2412225700495582	2.983421077951789	1.0	59.0	618408.0963	False		False	0.0	979.3414999999804	181.0
