subject	session	run	hit	miss	false_alarm	correct_rej	old	new	rate_hit_minus_FA	dprime	rt_hit	rt_miss	rt_FA	rt_CR	diff_rt_hit_minus_FA	hit_within	hit_between	hit_within_between	hit_between_within	miss_within	miss_between	miss_within_between	miss_between_within	old_within	old_between	old_within_between	old_between_within	rate_Hwith_min_FA	rate_Hbetw_min_FA	rate_Hwith_betw_min_FA	rate_Hbetw_with_min_FA	rt_hit_within	rt_hit_between	rt_hit_within_between	rt_hit_between_within	diff_rt_Hwith_min_Hbetw	rt_miss_within	rt_miss_between	rt_miss_within_between	rt_miss_between_within	hit_loConf	hit_hiConf	miss_loConf	miss_hiConf	FA_loConf	FA_hiConf	CR_loConf	CR_hiConf	dprime_hiConf	rt_hit_loConf	rt_hit_hiConf	rt_miss_loConf	rt_miss_hiConf	diff_rt_hitHC_minus_hitLC	rt_FA_loConf	rt_FA_hiConf	rt_CR_loConf	rt_CR_hiConf	hit_within_loConf	hit_between_loConf	hit_within_hiConf	hit_between_hiConf	hit_within_between_loConf	hit_between_within_loConf	hit_within_between_hiConf	hit_between_within_hiConf	miss_within_loConf	miss_between_loConf	miss_within_hiConf	miss_between_hiConf	miss_within_between_loConf	miss_between_within_loConf	miss_within_between_hiConf	miss_between_within_hiConf	rt_hit_within_loConf	rt_hit_between_loConf	rt_hit_within_hiConf	rt_hit_between_hiConf	rt_hit_within_between_loConf	rt_hit_between_within_loConf	rt_hit_within_between_hiConf	rt_hit_between_within_hiConf	rt_miss_within_loConf	rt_miss_between_loConf	rt_miss_within_hiConf	rt_miss_between_hiConf	rt_miss_within_between_loConf	rt_miss_between_within_loConf	rt_miss_within_between_hiConf	rt_miss_between_within_hiConf
sub-03	ses-002	run-1	22	18	1	19	40	20	0.5	1.770514973806547	1.5490499513799498	1.564901733928258	2.128536996841431	1.3542712030912722	-0.5794870454614813	5	3	8	6	1	11	6	0	6	14	14	6	0.7833333333333333	0.16428571428571426	0.5214285714285714	0.95	0.9966996173858604	2.064756002426158	1.9581876683235153	1.2059719149271662	-1.0680563850402975	1.1215790462493942	1.7250756402449203	1.3451366869608545		8	14	6	12	1	0	1	18	1.5746435181324867	2.102411178350448	1.2328435359682364	1.9681746482849138	1.36326527674993	-0.8695676423822118	2.128536996841431		1.5792290973663228	1.341773542298214	0	2	5	1	6	0	2	6	0	6	1	5	0	0	6	0		2.3332910299301197	0.9966996173858604	1.5276859474182345	2.025451227823891		1.7563969898223881	1.2059719149271662		1.9681746482849138	1.1215790462493942	1.433356830596928			1.3451366869608545	
sub-03	ses-002	run-2	23	17	0	20	40	20	0.575	2.149082410812847	1.401768218745356	1.5428261756896977		1.4401901044845615		6	1	9	7	2	11	3	1	8	12	12	8	0.75	0.08333333333333333	0.75	0.875	1.0831481107076009	2.264062004089368	1.7374796316358747	1.1200573825836204	-1.180913893381767	1.8277635002136172	1.4503320954062728	1.6239729913075809	1.7469459629058832	2	21	2	15	0	0	0	20	2.0226707624832683	1.8952509689331118	1.3547698615846173	1.7023969793319758	1.521550068537394	-0.5404811073484945				1.4401901044845615	0	1	6	0	1	0	8	7	0	2	2	9	0	0	3	1		2.264062004089368	1.0831481107076009		1.5264399337768555		1.763859593868252	1.1200573825836204		1.7023969793319758	1.8277635002136172	1.3943176767561167			1.6239729913075809	1.7469459629058832
sub-03	ses-002	run-3	29	11	1	19	40	20	0.6749999999999999	2.242613752993951	1.5232755118402956	2.0759792457927344	1.6152531433105537	1.6495111801749804	-0.09197763147025806	10	2	8	9	0	8	2	1	10	10	10	10	0.95	0.15000000000000002	0.75	0.85	1.1798983621597277	1.8211760473251317	2.0320595800876626	1.3863530540466362	-0.6412776851654041		1.995018686056136	2.087259516716003	2.701103181838988	7	22	5	6	1	0	4	15	2.0856253313951285	2.151882510866439	1.3232641939683407	2.0104208564758292	2.130611236890156	-0.8286183168980983	1.6152531433105537		2.097530565261853	1.5300393441518143	0	1	10	1	6	0	2	9	0	4	0	4	1	0	1	1		2.276109018325812	1.1798983621597277	1.3662430763244515	2.1311780929565436		1.7347040414810202	1.3863530540466362		1.8476610660552981		2.142376306056974	2.6614600181579533		1.5130590152740524	2.701103181838988
sub-03	ses-002	run-4	29	11	2	18	40	20	0.625	1.8793116915870787	1.3685414583929667	1.3179825141213155	2.027825012207031	1.5426430590947489	-0.6592835538140642	9	3	7	10	1	7	3	0	10	10	10	10	0.8	0.19999999999999998	0.6	0.9	1.0528040864732549	1.983055597941096	1.887521508080614	1.105064816474916	-0.9302515114678411	0.9675569057464486	1.3505365262712754	1.3588316885630316		10	19	1	10	2	0	2	16	1.8972572065968407	1.8308148593902618	1.1252396683943906	1.6130738639831603	1.2884733791351313	-0.7055751909958712	2.027825012207031		1.9790965604782116	1.488086371421816	0	3	9	0	5	2	2	8	0	1	1	6	0	0	3	0		1.983055597941096	1.0528040864732549		1.949854732513424	1.3048540687561054	1.7316884469985894	1.0551175034046185		1.6130738639831603	0.9675569057464486	1.3067803033192946			1.3588316885630316	
sub-03	ses-002	run-5	31	9	1	19	40	20	0.725	2.400268653311942	1.3317575940778188	1.5413793150583897	1.8259800910949764	1.3362821860062473	-0.4942224970171576	12	2	5	12	0	6	3	0	12	8	8	12	0.95	0.2	0.575	0.95	1.183169974486037	2.144294080734255	1.6838426570892395	1.198220356305436	-0.9611241062482183		1.6092234007517519	1.405691143671665		6	25	1	8	1	0	2	17	2.2786033485044297	1.9351899147033766	1.186933837127685	2.3550171756744405	1.4396745824813832	-0.7482560775756917	1.8259800910949764		1.4730995082855216	1.3201860304439796	1	2	11	0	3	0	2	12	0	1	0	5	0	0	3	0	1.4837221717834552	2.144294080734255	1.1558470474589988		1.9462763849894316		1.2901920652389514	1.198220356305436		2.3550171756744405		1.4600646457672142			1.405691143671665	
sub-03	ses-002	run-6	29	11	0	20	40	20	0.725	2.557724110582533	1.0777556761379896	1.3237248672138562		1.38346506929398		12	2	1	14	2	4	5	0	14	6	6	14	0.8571428571428571	0.3333333333333333	0.16666666666666666	1.0	1.0954406436284405	1.433220429420472	1.0849268722534182	1.0113042252404323	-0.3377797857920315	1.4205939912796026	1.0875477194786107	1.473918935775754		1	28	2	9	0	0	1	19	2.4843644972480954	2.1522959995269844	1.0393792360169543	1.9047913980483993	1.1945989714728467	-1.11291676351003			2.215666847229002	1.3396649757184524	1	0	11	2	0	0	1	14	0	0	2	4	2	0	3	0	2.1522959995269844		0.9993628840013002	1.433220429420472			1.0849268722534182	1.0113042252404323			1.4205939912796026	1.0875477194786107	1.9047913980483993		1.1866706275939904	
sub-03	ses-003	run-1	23	17	2	18	40	20	0.475	1.4706699918173927	1.3175955722642965	1.8108843988530836	2.548042812347415	1.5505875195397278	-1.2304472400831183	6	4	7	6	0	10	7	0	6	14	14	6	0.9	0.1857142857142857	0.4	0.9	1.1988450829188058	1.3985919141769365	1.7067859213692798	0.9282930930455464	-0.19974683125813075		1.8162914438247733	1.803160048893527		6	17	7	10	2	0	7	11	1.770845558267262	1.7677151139577205	1.1587298516666173	1.7515454932621566	1.8524216327667324	-0.6089852622911032	2.548042812347415		1.8039480645316008	1.3893580818176265	0	2	6	2	4	0	3	6	0	3	0	7	4	0	3	0		1.5314644527435206	1.1988450829188058	1.2657193756103524	1.8858404445648207		1.4680465571085588	0.9282930930455464		1.686333262125648		1.8719878074101126	1.800454666614538		1.8067672252655125	
sub-03	ses-003	run-2	27	13	0	20	40	20	0.675	2.413726174709934	1.374720198666608	1.472369359823376		1.3890664076805137		8	4	7	8	0	8	5	0	8	12	12	8	1.0	0.3333333333333333	0.5833333333333334	1.0	1.1357606959342963	1.8171960878372104	1.4837246595110238	1.2970628535747544	-0.6814353919029141		1.3662532508373286	1.6421551342010516		9	18	5	8	0	0	5	15	1.8343026376849805	1.698023753696014	1.213068421151905	1.8913246898651153	1.2105222785472889	-0.48495533254410916			1.639897264480601	1.3054561220804848	0	3	8	1	5	1	2	7	0	2	0	6	3	0	2	0		1.8777191066741825	1.1357606959342963	1.635627031326294	1.5918596801757814	1.689758062362671	1.2133871078491296	1.2409635380336235		1.9400125408172642		1.17500015417735	1.8588661225636827		1.3170886516571052	
sub-03	ses-003	run-3	25	15	1	19	40	20	0.575	1.963492990915848	1.1666440685272235	1.609624302546185	2.426659812927248	1.3551075031882842	-1.2600157444000246	10	0	5	10	0	10	5	0	10	10	10	10	0.95	-0.05	0.45	0.95	1.060754512786867		1.5924431304931765	1.0596340932846033			1.554042516708377	1.7207878742218015		4	21	7	8	1	0	0	19	2.0226707624832683	1.7165261721611165	1.0619046202160056	1.9461734485626232	1.3151437997818016	-0.6546215519451108	2.426659812927248			1.3551075031882842	0	0	10	0	4	0	1	10	0	4	0	6	3	0	2	0			1.060754512786867		1.7165261721611165		1.0961109638214168	1.0596340932846033		2.0580156254768394		1.2180604441960685	1.797050546010335		1.6063938665390012	
sub-03	ses-003	run-4	23	17	0	20	40	20	0.575	2.149082410812847	1.3048643949757468	1.3237794668534244		1.5441921210289005		10	0	3	10	0	10	7	0	10	10	10	10	1.0	0.0	0.3	1.0	1.3939316987991361		1.7238722896575922	1.090094722747804			1.2775237293243433	1.3898590918949683		6	17	2	15	0	0	6	14	1.770845558267262	1.8518305905660029	1.11181750241448	1.7974864387512284	1.2606185372670504	-0.7400130881515228			1.7854476308822644	1.4407969025203158	3	0	7	0	3	0	0	10	0	1	0	9	1	0	6	0	1.9797888914744135		1.142850044795446		1.7238722896575922			1.090094722747804		1.793107967376713		1.220236591762969	1.801864910125744		1.3211914555231725	
sub-03	ses-003	run-5	30	10	1	19	40	20	0.7	2.3193433771475545	1.262721170107522	1.5202869749069263	1.4984811401367324	1.348407531035577	-0.23575997002921034	11	3	4	12	1	5	4	0	12	8	8	12	0.8666666666666666	0.325	0.45	0.95	1.1329596970298044	1.798915405273436	1.4814030718803393	1.1747266610463456	-0.6659557082436316	1.0200490856170743	1.4169290714264005	1.7745438265800466		7	23	3	7	1	0	4	15	2.149082410812847	1.6635500894274016	1.1407297598797326	2.079043025970473	1.280820095879692	-0.522820329547669	1.4984811401367324		1.5249185657501219	1.3013379217783652	2	3	9	0	2	0	2	12	0	1	1	4	2	0	2	0	1.6332360887527455	1.798915405273436	1.0217871655358175		1.490816116333006		1.4719900274276725	1.1747266610463456		1.9283839893341508	1.0200490856170743	1.2890653419494629	2.154372544288634		1.394715108871459	
sub-03	ses-003	run-6	28	12	1	19	40	20	0.6499999999999999	2.1692541396595137	1.2716272020339987	1.3783694322903959	0.9634541130065912	1.353529932624416	0.3081730890274075	14	1	2	11	0	5	4	3	14	6	6	14	0.95	0.11666666666666665	0.2833333333333333	0.7357142857142857	1.3365243325914693	0.8745660305023222	1.7420495986938391	1.1395959793437627	0.4619583020891471		1.3253405914306682	1.4494907546043372	1.3719224039713538	7	21	2	10	0	1	0	19	1.7075604048946866	1.7185369682312017	1.1226572799682641	1.9653704881667977	1.2609692211151156	-0.5958796882629376		0.9634541130065912		1.353529932624416	3	0	11	1	2	2	0	9	0	0	0	5	1	1	3	2	1.7091164652506545		1.2349082964116915	0.8745660305023222	1.7420495986938391	1.709155092239385		1.01302728758918				1.3253405914306682	2.0496809577941804	1.881060018539415	1.249427353541056	1.1173535966873231
sub-03	ses-004	run-1	18	12	2	13	30	15	0.4666666666666667	1.364118719772585	1.6290614096323683	1.9802439634005236	2.251068906784049	1.621013019268332	-0.6220074971516805	3	6	7	2	0	6	5	1	3	12	12	3	0.8666666666666667	0.3666666666666667	0.45000000000000007	0.5333333333333333	1.059757871627814	1.9742237615585339	1.781848054613389	0.9127764034271308	-0.9144658899307199		1.8351816892623891	2.1720863094329856	1.8914058780670189	9	9	8	4	2	0	8	5	1.3095141231078737	2.06157190958659	1.196550909678147	1.899532368183137	2.1416671538352965	-0.8650209999084428	2.251068906784049		1.8050333034992232	1.3265805644989057	0	5	3	1	4	0	3	2	0	3	0	3	4	1	1	0		2.0970071487426765	1.059757871627814	1.3603068256378208	2.017277860641481		1.4679416465759327	0.9127764034271308		1.6621868483225484		2.00817653020223	2.079573130607608	1.8914058780670189	2.542139024734496	
sub-03	ses-004	run-2	33	7	1	19	40	20	0.7749999999999999	2.5794429180249527	1.4728988835305898	1.8335415485927022	1.256801118850717	1.8016977119445807	0.21609776467987274	8	8	9	8	0	4	3	0	8	12	12	8	0.95	0.6166666666666666	0.7	0.95	1.1625092065334366	1.7639360952377396	1.698866765764025	1.2380374813079786	-0.601426888704303		1.5671621274948082	2.188714110056561		14	19	4	3	0	1	14	5	1.582146849008259	1.903891237122677	1.1553255703574732	2.1695373511314404	1.385547145207718	-0.7485656667652039		1.256801118850717	1.8168882921763831	1.7591640872955339	2	6	6	2	5	1	4	7	0	1	0	3	3	0	0	0	1.6460315227508566	1.8439612499872948	1.00133510112763	1.5238606309890748	1.9861839237213132	2.3677271556854294	1.339720318317415	1.0766532421112		2.112007074356079		1.385547145207718	2.188714110056561			
sub-03	ses-004	run-3	28	12	2	18	40	20	0.6	1.805952078252641	1.2512120880399442	1.8183739391962668	1.4180620527267465	1.65617665237851	-0.16684996468680224	10	3	6	9	0	7	4	1	10	10	10	10	0.9	0.19999999999999998	0.5	0.8	1.003946547508241	1.9685140419006377	1.6609939130147309	1.0136630429161921	-0.9645674943923968		1.7819741453443234	1.9443290257453896	1.569352149963379	7	21	8	4	1	1	9	9	1.7075604048946866	1.8181929043361138	1.0622184826078875	1.9483829033374764	1.5583560109138475	-0.7559744217282263	1.6815120220184312	1.1546120834350615	1.7496142599317852	1.5627390448252347	1	3	9	0	3	0	3	9	0	4	0	3	3	1	1	0	1.4667829895019509	1.9685140419006377	0.9525202761756064		1.7850084050496442		1.5369794209798175	1.0136630429161921		2.0018684864044154		1.4887816905975342	2.00341237703959	1.569352149963379	1.7670789718627873	
sub-03	ses-004	run-4	31	9	4	16	40	20	0.575	1.5970362599333834	1.3419013432533515	1.542748875088163	1.6348483014106687	1.3782614022493411	-0.2929469581573172	9	4	8	10	1	6	2	0	10	10	10	10	0.7	0.2	0.6000000000000001	0.8	1.0208525403340696	1.9888953518867536	1.7434106981754258	1.050840178489685	-0.968042811552684	1.9149241542816071	1.4421652555465716	1.6584120941162155		7	24	2	7	2	2	2	14	1.5348986686804	1.7849687835148396	1.2126733398437508	1.8138916254043593	1.4652795178549642	-0.5722954436710888	1.8101155757904017	1.4595810270309357	1.6169510984420787	1.344162874221807	0	3	9	1	4	0	4	10	0	1	1	5	1	0	1	0		1.9148167610168514	1.0208525403340696	2.21113112449646	1.6875828003883306		1.799238595962521	1.050840178489685		1.4688121223449713	1.9149241542816071	1.4368358821868918	2.1589711284637474		1.1578530597686836	
sub-03	ses-004	run-5	28	12	1	19	40	20	0.6499999999999999	2.1692541396595137	1.2256287813186666	2.0591604328155526	2.0081651782989525	1.5982407203473548	-0.7825363969802859	11	2	3	12	1	6	5	0	12	8	8	12	0.8666666666666666	0.2	0.325	0.95	1.047077930623833	1.9096101617813126	1.8037307421366393	1.13077800750733	-0.8625322311574797	1.2692712020873955	2.0015874481201195	2.286225860595704		4	24	8	4	1	0	9	10	2.213311087675854	2.056507079601288	1.0871490649382298	2.0804832565784466	2.0165147852897647	-0.9693580146630583	2.0081651782989525		1.591880658467613	1.6039647760391222	0	1	11	1	2	1	1	11	1	5	0	1	2	0	3	0		2.119306116104127	1.047077930623833	1.699914207458498	1.8755750608444242	2.355572080612177	1.6600421047210698	1.0194330917705257	1.2692712020873955	2.0203095397949253		1.9079769897460888	2.6365235757827747		2.05269405047099	
sub-03	ses-004	run-6	34	6	1	19	40	20	0.7999999999999999	2.6812870164452627	1.1852242624058453	1.6418518638610848	2.278484125137332	1.589021354976455	-1.0932598627314865	14	2	5	13	0	4	1	1	14	6	6	14	0.95	0.2833333333333333	0.7833333333333333	0.8785714285714286	1.1057419804164357	1.5213525676727286	1.7688662681579685	0.9946308246025649	-0.41561058725629296		1.9240625309944175	1.171712970733637	0.9831480884552022	4	30	2	4	0	1	13	6	2.3193433771475545	2.095955822467806	1.0637933877309174	1.1539405107498197	1.8858075404167174	-1.0321624347368885		2.278484125137332	1.557625559293308	1.6570455789566065	1	0	13	2	3	0	2	13	0	1	0	3	1	0	0	1	2.007459096908576		1.0363791253016557	1.5213525676727286	2.125454730987549		1.2339835739135978	0.9946308246025649		1.1361680507660026		2.1866940244038893	1.171712970733637			0.9831480884552022
sub-03	ses-005	run-1	16	24	0	20	40	20	0.4	1.7066168814042548	1.221971711516385	1.9347767110665641		1.8062317876815797		6	1	3	6	0	13	11	0	6	14	14	6	1.0	0.07142857142857142	0.21428571428571427	1.0	1.0397251160939665	1.932675952911378	2.0266810162862092	0.8834129476547261	-0.8929508368174115		1.8452510613661555	2.0405797516215927		3	13	20	4	0	0	9	11	1.506201794370175	2.0886329936981163	1.0219729540898317	1.9502642755508437	1.8573388886451667	-1.0666600396082846			1.8926270389556903	1.7355447639118524	0	1	6	0	2	0	1	6	0	9	0	4	11	0	0	0		1.932675952911378	1.0397251160939665		2.1666115140914854		1.7468200206756563	0.8834129476547261		1.8398786936865947		1.8573388886451667	2.0405797516215927			
sub-03	ses-005	run-2	26	14	1	19	40	20	0.6	2.0301740933590406	1.4698604396673352	1.9230670295442873	2.3364139366150027	1.6671469367177878	-0.8665534969476676	6	6	6	8	2	6	6	0	8	12	12	8	0.7	0.45	0.45	0.95	1.1879457108179732	1.940069053967794	1.974685999552408	0.9500208556652083	-0.7521233431498209	1.9151175451278704	1.6235883617401112	2.225195525487269		9	17	10	4	1	0	11	8	1.770845558267262	1.9879302332136366	1.1955881960251757	2.1310685234069844	1.4030632948875446	-0.7923420371884609	2.3364139366150027		1.6828469692577022	1.6455593919754055	0	4	6	2	5	0	1	8	1	3	1	3	6	0	0	0		1.9671248030662551	1.1879457108179732	1.885957555770872	2.0045745773315415		1.8252431106567395	0.9500208556652083	2.6543410110473644	1.7683903566996217	1.1758940792083763	1.4787863667806007	2.225195525487269			
sub-03	ses-005	run-3	29	11	2	18	40	20	0.625	1.8793116915870787	1.297512038658408	1.9284646051580274	2.4521925687789903	1.705699433750575	-1.1546805301205822	10	1	8	10	0	9	2	0	10	10	10	10	0.9	0.0	0.7000000000000001	0.9	1.113587670326234	1.7775800132751556	1.8041766774654455	1.0280978984832772	-0.6639923429489216		1.919792729483712	1.9674880456924473		6	23	6	5	2	0	8	10	2.149082410812847	1.9586511961619166	1.1250409540922752	1.9855323870976747	1.8599832668304512	-0.8336102420696414	2.4521925687789903		1.6753746807575216	1.729959236145018	1	1	9	0	4	0	4	10	0	5	0	4	1	0	1	0	1.0432031154632568	1.7775800132751556	1.1214081764221204		2.232781012058272		1.3755723428726192	1.0280978984832772		1.9714128437042198		1.8552675867080772	2.056130104064948		1.8788459873199468	
sub-03	ses-005	run-4	26	14	2	18	40	20	0.55	1.6668720319521682	1.2641230605198788	1.8000292709895562	1.6109209632873416	1.5743514257007214	-0.3467979027674628	8	2	6	10	2	8	4	0	10	10	10	10	0.7000000000000001	0.1	0.5	0.9	1.0350998198986057	1.9566980600357038	1.7952102025349934	0.9901743679046637	-0.9215982401370981	2.0706330823898327	1.7664144194126141	1.731957068443302		6	20	9	5	1	1	10	8	1.6448536269514729	1.8634303855895993	1.0843308629989628	1.8035837406582316	1.7936312255859406	-0.7790995225906365	1.6087889862060365	1.6130529403686469	1.6219982423782404	1.5147929048538225	0	1	8	1	5	0	1	10	1	5	1	3	3	0	1	0		1.9783900928497324	1.0350998198986057	1.9350060272216751	1.8404384441375725		1.569068994522098	0.9901743679046637	1.5228231525421163	1.8979598560333244	2.618443012237549	1.5471720250447636	1.7398770777384485		1.708197040557863	
sub-03	ses-005	run-5	31	9	4	16	40	20	0.575	1.5970362599333834	1.2033197689056414	1.7815007930331808	1.8567102646827691	1.7162318915128698	-0.6533904957771277	12	2	5	12	0	6	3	0	12	8	8	12	0.8	0.04999999999999999	0.425	0.8	1.0402881995836892	2.111966075897218	1.8225802135467561	0.9568851017951996	-1.0716778763135288		1.6468428373336792	2.0508167044321843		7	24	5	4	3	1	8	8	1.8982007300872725	1.908832486016411	0.9975452264150002	2.005204627990733	1.5018709993362407	-0.9112872596014108	1.9395319938659668	1.6082450771331764	1.7635833919048292	1.6688803911209105	1	2	11	0	4	0	1	12	0	3	0	3	2	0	1	0	1.484707098007192	2.111966075897218	0.9998864815451889		1.913297038078312		1.459712915420532	0.9568851017951996		2.0097037220001255		1.283981952667233	1.9984559869766443		2.155538139343264	
sub-03	ses-005	run-6	30	9	0	20	39	20	0.7692307692307693	2.696279901916184	1.1902734613418604	2.0378725094265393		1.6235309233665483		13	2	3	12	1	4	3	1	14	6	6	13	0.9285714285714286	0.3333333333333333	0.5	0.9230769230769231	1.2056852193979124	2.0530694341659546	1.7114353434244787	0.8994875907898005	-0.8473842147680422	1.5434578609466598	2.143499927520753	2.0383740075429273	2.1082729911803995	4	26	3	6	0	0	6	14	2.390691283835512	2.0419497132301325	1.0592463456667416	1.772951583862304	2.170332972208657	-0.9827033675633909			1.9587114477157617	1.4798821272168852	1	2	12	0	1	0	2	12	1	1	0	3	0	1	3	0	2.2321119594573977	2.0530694341659546	1.1201496577262884		1.829548025131224		1.6523790025711058	0.8994875907898005	1.5434578609466598	1.6671238994598525		2.3022919368743864		2.1082729911803995	2.0383740075429273	
sub-03	ses-006	run-1	29	11	1	19	40	20	0.6749999999999999	2.242613752993951	1.4666197309822853	1.7759167905287343	1.8356960487365936	1.7049666846425948	-0.3690763177543084	6	7	10	6	0	7	4	0	6	14	14	6	0.95	0.45	0.6642857142857143	0.95	1.0738577969868974	1.864840282712662	1.7274354715347269	0.960098120371498	-0.7909824857257646		1.745681837626869	1.8288279581069986		13	16	10	1	1	0	13	6	1.7066168814042548	1.847841905447152	1.1568767142295813	1.7322790756225612	2.2122939395904666	-0.6909651912175707	1.8356960487365936		1.7785120252462587	1.5456184466679896	0	7	6	0	6	0	4	6	0	6	0	1	4	0	0	0		1.864840282712662	1.0738577969868974		1.8280104653040568		1.5765729808807316	0.960098120371498		1.6679131539662695		2.2122939395904666	1.8288279581069986			
sub-03	ses-006	run-2	28	12	1	19	40	20	0.6499999999999999	2.1692541396595137	1.4315274810791032	1.8974657543500306	2.70852488517761	1.8958873984688198	-1.2769974040985068	8	2	10	8	0	10	2	0	8	12	12	8	0.95	0.11666666666666665	0.7833333333333333	0.95	1.071126079559333	1.5724433803558338	1.8067582397460964	1.2876614594459497	-0.5013173007965008		1.8754732313156168	2.0074283695220996		9	19	10	2	1	0	18	1	1.8972572065968407	1.8623480330573214	1.2274545880367895	1.9805545167923022	1.482021942138672	-0.6348934450205319	2.70852488517761		1.9104381460613657	1.6339739418029922	0	1	8	1	8	0	2	8	0	8	0	2	2	0	0	0		1.7747229290008557	1.071126079559333	1.370163831710812	1.8733011710643797		1.5405865144729631	1.2876614594459497		1.973836053609853		1.482021942138672	2.0074283695220996			
sub-03	ses-006	run-3	33	7	4	16	40	20	0.625	1.7762105246463942	1.3460264084555909	1.8516843577793622	1.9199000096321157	1.796055766344071	-0.5738736011765249	10	5	8	10	0	5	2	0	10	10	10	10	0.8	0.3	0.6000000000000001	0.8	1.1302437667846745	1.859383274078369	1.5247357821464531	1.1621631183624286	-0.7291395072936944		1.8754624519348113	1.7922391223907397		6	27	6	1	2	2	14	2	1.73531375571448	1.858736772537234	1.2320907719930037	1.785147898991897	2.2509031105041544	-0.6266460005442303	1.9734635162353555	1.8663365030288757	1.8422806630815776	1.4724814891815257	0	2	10	3	3	1	5	9	0	4	0	1	2	0	0	0		2.127474598884584	1.1302437667846745	1.6806557242075588	1.809258098602297	1.4696971416473446	1.3540223922729466	1.1279926713307713		1.7816022872924755		2.2509031105041544	1.7922391223907397			
sub-03	ses-006	run-4	31	9	2	18	40	20	0.675	2.0369665919050695	1.356773208187475	1.846985654830929	1.3793866109848096	1.660021249983047	-0.022613402797334592	10	3	9	9	0	7	1	1	10	10	10	10	0.9	0.19999999999999998	0.8	0.8	1.018157418251046	2.069577741622927	1.6221777651045057	1.2300069067213255	-1.0514203233718808		1.8148102501460441	2.6063730335235675	1.3128261089324835	11	20	9	0	1	1	16	2	1.6448536269514729	1.9378043686259865	1.0372060699462935	1.846985654830929		-0.900598298679693	1.7133710861206168	1.0454021358490024	1.69162157714367	1.4072186326980614	1	3	9	0	6	1	3	8	0	7	0	0	1	1	0	0	1.7118151569366518	2.069577741622927	0.9410843361748675		1.77504759788513	2.74501408576964	1.3164380995432576	1.0406310093402862		1.8148102501460441			2.6063730335235675	1.3128261089324835		
sub-03	ses-006	run-5	26	14	1	19	40	20	0.6	2.0301740933590406	1.1626946577659047	1.5071758352007172	2.259335823059104	1.4969960267920244	-1.0966411652931993	10	2	2	12	2	6	6	0	12	8	8	12	0.7833333333333333	0.2	0.2	0.95	1.1616667346954384	1.628754429817203	1.4058894824981678	1.0453421608606999	-0.4670876951217646	1.6172059249877933	1.4846100378036429	1.4930649360020993		3	23	13	1	1	0	17	2	2.149082410812847	1.66234389305115	1.0975230183808729	1.5337461427541865	1.1617618370056135	-0.5648208746702772	2.259335823059104		1.491628287259271	1.5426218128204283	1	2	9	0	0	0	2	12	2	5	0	1	6	0	0	0	1.729522819519044	1.628754429817203	1.0985716141594821				1.4058894824981678	1.0453421608606999	1.6172059249877933	1.5491796779632487		1.1617618370056135	1.4930649360020993			
sub-03	ses-006	run-6	34	6	1	19	40	20	0.7999999999999999	2.6812870164452627	1.131667780876161	1.5093055582046517	1.8582810211181595	1.4567609465749656	-0.7266132402419985	13	2	5	14	1	4	1	0	14	6	6	14	0.8785714285714286	0.2833333333333333	0.7833333333333333	0.95	1.0273296877054092	1.5477709770202637	1.4437826671600376	1.0576402371270315	-0.5204412893148544	1.1924220561981258	1.6563113021850562	1.23816608428956		4	30	6	0	1	0	17	2	2.634453734736136	1.6739230108261118	1.0593670835495008	1.5093055582046517		-0.614555927276611	1.8582810211181595		1.4497125855614175	1.5166720151901245	0	2	13	0	2	0	3	14	1	4	0	0	1	0	0	0		1.5477709770202637	1.0273296877054092		1.80007504463196		1.2062544155120893	1.0576402371270315	1.1924220561981258	1.6563113021850562			1.23816608428956			
sub-03	ses-007	run-1	17	23	3	17	40	20	0.275	0.8473149632209973	1.4139016022401676	1.6810174991773537	1.878051579793291	1.7801373072231572	-0.4641499775531235	6	2	3	6	0	12	11	0	6	14	14	6	0.85	-0.007142857142857145	0.06428571428571428	0.85	0.9886199108759494	2.295332908630371	2.2971485678354875	1.1037493753433243	-1.3067129977544218		1.6341364979743973	1.732160409580579		4	13	20	3	3	0	14	3	1.506201794370175	2.4105464220046997	1.1072416576972346	1.6927855858802812	1.602563587824504	-1.3033047643074651	1.878051579793291		1.7495105171203669	1.923062327702845	0	2	6	0	2	0	1	6	0	9	0	3	11	0	0	0		2.295332908630371	0.9886199108759494		2.5257599353790283		1.8399258327484065	1.1037493753433243		1.6446608013576949		1.602563587824504	1.732160409580579			
sub-03	ses-007	run-2	30	10	5	15	40	20	0.5	1.3489795003921634	1.3062745176951107	1.856950602531431	2.14017887687683	1.8191020622253455	-0.8339043591817192	8	5	9	8	0	7	3	0	8	12	12	8	0.75	0.16666666666666669	0.5	0.75	0.9215491175651565	2.1318349018096976	1.491288226445518	0.9668842554092398	-1.2102857842445411		1.7728363977159773	2.0532170804341567		8	22	8	2	3	2	10	5	1.4072129123996746	1.9737954819202437	1.063539621613244	1.777260349988934	2.17571161270142	-0.9102558603069997	2.006990416844682	2.3399615669250515	1.89318523025513	1.6709357261657771	0	5	8	0	3	0	6	8	0	5	0	2	3	0	0	0		2.1318349018096976	0.9215491175651565		1.710396448771154		1.3817341152826998	0.9668842554092398		1.6116863117218003		2.17571161270142	2.0532170804341567			
sub-03	ses-007	run-3	31	9	3	17	40	20	0.625	1.7918484158542591	1.3260792292318044	1.5189217991299075	1.7240477561950815	1.6913807577245394	-0.3979685269632771	10	6	6	9	0	4	4	1	10	10	10	10	0.85	0.44999999999999996	0.44999999999999996	0.75	0.9853173732757565	1.6172168684005743	1.9427845223744733	1.0994748920864543	-0.6318994951248178		1.3375327658653227	1.7997260260581935	1.1212610244751031	7	24	6	3	3	0	14	3	2.213311087675854	1.9782557364872555	1.135861081282298	1.3911198616027818	1.774525674184159	-0.8423946552049575	1.7240477561950815		1.6761289903095804	1.7625556723276812	0	3	10	3	3	1	3	8	0	4	0	0	1	1	3	0		1.8483950710296664	0.9853173732757565	1.3860386657714823	1.940829992294315	2.480114965438844	1.9447390524546317	0.9268948829174057		1.3375327658653227			1.8753270816802967	1.1212610244751031	1.774525674184159	
sub-03	ses-007	run-4	30	10	7	13	40	20	0.4	1.0598102166036494	1.3978592386245714	1.6491311836242732	1.5277567195892405	1.7447236772683963	-0.12989748096466913	10	4	6	10	0	6	4	0	10	10	10	10	0.65	0.050000000000000044	0.25	0.65	1.169375674247743	1.9372384548187238	1.7846489222844386	1.178517306327818	-0.7678627805709808		1.698715170224508	1.574755203723921		5	25	6	4	4	3	7	6	1.355072753458165	1.9489229297637904	1.2876465003967275	1.7265649636586584	1.5329805135726955	-0.661276429367063	2.009304018020641	0.8856936550140398	1.5494591127123167	1.9725323359171558	1	2	9	2	2	0	4	10	0	3	0	3	3	0	1	0	1.6413029670715389	1.7752819061279297	1.1169393083784322	2.099195003509518	2.276373934745777		1.5387864160537692	1.178517306327818		1.979007641474407		1.4184226989746092	1.4741222858429097		1.8766539573669547	
sub-03	ses-007	run-5	37	3	5	15	40	20	0.675	2.114021221134538	1.234402510153284	1.892637157440184	1.5045808849334716	1.7527093124389626	-0.2701783747801876	12	5	8	12	0	3	0	0	12	8	8	12	0.75	0.375	0.75	0.75	0.964193280537927	1.7538654785156276	1.7900728332996376	0.9177219541867618	-0.7896721979777006		1.892637157440184			7	30	3	0	3	2	15	0	1.956041315740682	2.0838258048466285	1.0362037413915035	1.892637157440184		-1.047622063455125	1.8208657900492344	1.0301535272598272	1.7527093124389626		0	2	12	3	5	0	3	12	0	3	0	0	0	0	0	0		1.9435280799865726	0.964193280537927	1.6274237442016641	2.1399448947906508		1.206952730814616	0.9177219541867618		1.892637157440184						
sub-03	ses-007	run-6	33	7	4	16	40	20	0.625	1.7762105246463942	1.098171273722794	1.3861113861628962	1.771596434116375	1.7944020950794213	-0.673425160393581	13	3	3	14	1	3	3	0	14	6	6	14	0.7285714285714286	0.3	0.3	0.8	0.8872214940878074	1.8912245591481518	1.5040242290496835	1.0371447317940858	-1.0040030650603444	0.1426980113983234	1.4971136538187721	1.6895802434285443		3	30	4	3	2	2	12	4	1.956041315740682	1.726453218460082	1.0353430792490652	1.302859685420989	1.4971136538187721	-0.6911101392110168	2.026984953880315	1.5162079143524352	1.8565926655133558	1.6078303837776176	0	1	13	2	2	0	1	14	1	0	0	3	3	0	0	0		1.6299028873443575	0.8872214940878074	2.021885395050049	1.7747283840179442		0.962615919113162	1.0371447317940858	0.1426980113983234			1.4971136538187721	1.6895802434285443			
sub-03	ses-008	run-1	30	10	0	20	40	20	0.75	2.634453734736136	1.494382250150045	2.1084492721557644		1.8530870409011864		5	7	12	6	1	7	2	0	6	14	14	6	0.8333333333333334	0.5	0.8571428571428571	1.0	0.921805744171138	1.746026802062987	1.8257647013664278	1.0151791254679357	-0.824221057891849	2.255667018890392	2.1102546964372957	2.028521413803091		13	17	7	3	0	0	11	9	1.770845558267262	1.9044784876016485	1.180779245039995	2.095259128298085	2.13922627449035	-0.7236992425616535			2.090766772356901	1.5625895913442018	0	5	5	2	8	0	4	6	1	5	0	2	1	0	1	0		1.842267133712766	0.921805744171138	1.5054259729385393	1.9433605837822001		1.5905729365348833	1.0151791254679357	2.255667018890392	2.0450065898895344		2.273374962806699	2.186113929748529		1.8709288978576524	
sub-03	ses-008	run-2	28	12	2	18	40	20	0.6	1.805952078252641	1.2092781060082582	1.959596025149026	2.046388530731207	1.6805705881118804	-0.8371104247229486	8	6	6	8	0	6	6	0	8	12	12	8	0.9	0.4	0.4	0.9	0.9726265466213242	1.6893687391281162	1.4938741048177053	0.8724146914482134	-0.716742192506792		1.8091452884674044	2.1100467618306475		8	20	8	4	2	0	10	8	1.9599639845400545	1.8074789047241233	0.9699977865219122	2.0891797041892985	1.700428667068481	-0.8374811182022112	2.046388530731207		1.7746276140213055	1.5629993057250993	0	5	8	1	3	0	3	8	0	4	0	2	4	0	2	0		1.7875956954956087	0.9726265466213242	1.198233957290654	1.8406175867716474		1.147130622863763	0.8724146914482134		1.9584642171859696		1.5105074310302733	2.2198951911926272		1.8903499031066886	
sub-03	ses-008	run-3	33	7	1	19	40	20	0.7749999999999999	2.5794429180249527	1.3232336125229363	2.0573473494393477	1.7124329662323134	1.7946620027642508	-0.3891993537093772	10	6	7	10	0	4	3	0	10	10	10	10	0.95	0.5499999999999999	0.6499999999999999	0.95	1.136265694618227	1.7420095841089882	1.6834836142403822	1.0067609462738019	-0.6057438894907612		2.1082009077072126	1.989542605082195		5	28	6	1	1	0	12	7	2.4843644972480954	1.7285200996399	1.2508610255377641	2.0685869455337524	1.9899097728729205	-0.4776590741021358	1.7124329662323134		1.8127878173192382	1.7635891778128436	0	1	10	5	4	0	3	10	0	3	0	1	3	0	0	0		1.5363458633422835	1.136265694618227	1.783142328262329	1.7765636587143039		1.5593768882751533	1.0067609462738019		2.14763128598531		1.9899097728729205	1.989542605082195			
sub-03	ses-008	run-4	31	9	6	14	40	20	0.47500000000000003	1.2798155390685102	1.261475058832479	1.7821530585818754	2.053202535311384	1.793492896216259	-0.7917274764789048	10	4	7	10	0	6	3	0	10	10	10	10	0.7	0.10000000000000003	0.39999999999999997	0.7	1.0138868398666445	1.732412576675415	1.7352434798649377	0.9890503759384174	-0.7185257368087705		1.7932597160339319	1.7599397436777622		6	25	7	2	5	1	6	8	1.963492990915848	1.8249170589447008	1.1262489788055456	1.80310533659798	1.7088200855255096	-0.6986680801391552	2.1935258426666295	1.3515859985351568	1.7751477114359577	1.807251784801485	0	1	10	3	5	0	2	10	0	4	0	2	3	0	0	0		1.8299651145935056	1.0138868398666445	1.6998950640360515	1.8239074478149397		1.5135835599899323	0.9890503759384174		1.8354795312881431		1.7088200855255096	1.7599397436777622			
sub-03	ses-008	run-5	34	6	3	17	40	20	0.7	2.0728667789875797	1.1262933585223032	2.0403016281127955	1.4283246294657346	1.829951910131122	-0.3020312709434314	12	3	7	12	0	5	1	0	12	8	8	12	0.85	0.225	0.725	0.85	0.9120503878593458	1.3291199938456255	1.608674985340662	1.0084403880437207	-0.41706960598627973		1.9462575569152876	2.510521984100336		3	31	3	3	0	3	5	12	1.7918484158542591	1.4418059476216616	1.0957598821578491	2.119322611490882	1.9612806447347093	-0.34604606546381245		1.4283246294657346	1.8261167621612628	1.8315498884518966	1	1	11	2	1	0	6	12	0	2	0	3	1	0	0	0	0.0986910438537602	1.913404903411866	0.9859921464053081	1.0369775390625051	2.3133218955993584		1.4912338336308792	1.0084403880437207		1.9237229251861545		1.9612806447347093	2.510521984100336			
sub-03	ses-008	run-6	33	7	2	18	40	20	0.725	2.2161408566180802	1.1258181155811662	1.7494629028865347	2.231496996879571	1.8236444399091942	-1.1056788812984046	13	2	4	14	1	4	2	0	14	6	6	14	0.8285714285714286	0.2333333333333333	0.5666666666666667	0.9	1.0042588740128748	1.721169629096984	1.8843050217628443	0.9369337933404118	-0.7169107550841092	0.8193810176849183	1.7316380405426202	2.250153570175172		1	32	2	5	2	0	8	10	2.801585218112969	2.366279964447017	1.0870536828041084	2.4553550529480077	1.4671060428619456	-1.2792262816429085	2.231496996879571		2.0751066875457767	1.6224746417999285	0	0	13	2	1	0	3	14	0	1	1	3	1	0	1	0			1.0042588740128748	1.721169629096984	2.366279964447017		1.7236467075347868	0.9369337933404118		2.218246049881003	0.8193810176849183	1.5694353707631592	2.6924640560150124		1.807843084335332	
sub-03	ses-009	run-1	25	15	2	18	40	20	0.525	1.6001909295089756	1.274831749343875	1.7490562483469674	1.6726651668548551	1.5516069873174014	-0.3978334175109801	6	5	8	6	0	9	6	0	6	14	14	6	0.9	0.2571428571428571	0.4714285714285714	0.9	0.946628937721254	1.6905919456481968	1.5759931015968323	0.8550192610422845	-0.7439630079269428		1.7910758770836723	1.6860268052419098		6	19	9	6	2	0	3	15	1.8972572065968407	1.870998501777649	1.0865685643647884	1.9702322218153228	1.4172922881444343	-0.7844299374128605	1.6726651668548551		1.8168834622700984	1.498551692326862	0	2	6	3	4	0	4	6	0	7	0	2	2	0	4	0		1.8639146804809599	0.946628937721254	1.575043455759688	1.8745404124259935		1.277445790767671	0.8550192610422845		1.9623128277914872		1.1917465496063215	1.9979501008987484		1.5300651574134907	
sub-03	ses-009	run-2	28	12	4	16	40	20	0.49999999999999994	1.3660217462809547	1.3408470375197274	1.8337344439824406	1.9091422367096076	1.607176997661594	-0.5682951991898801	7	6	7	8	1	6	5	0	8	12	12	8	0.675	0.3	0.38333333333333336	0.8	0.9016126659938257	1.888971962928773	1.7530783925737623	0.9533809828758262	-0.9873592969349472	2.015689020156856	1.7277026287714616	1.924581707000732		7	21	5	7	3	1	5	11	1.7075604048946866	1.7817792252131899	1.1938696416219063	2.247356975555418	1.5382897785731708	-0.5879095835912835	2.0759729703267573	1.4086500358581588	1.852324523925781	1.4957463039051448	0	4	7	2	3	0	4	8	1	2	0	4	2	0	3	0		1.897180948257449	0.9016126659938257	1.8725539922714205	1.6279102611541774		1.846954491138451	0.9533809828758262	2.015689020156856	2.0965049505233786		1.5433014678955033	2.514042978286738		1.5316075261433941	
sub-03	ses-009	run-3	31	9	7	13	40	20	0.42500000000000004	1.140735492768037	1.182148009269471	1.9510762585534005	1.7828321743011455	1.7833012639559227	-0.6006841650316745	10	5	6	10	0	5	4	0	10	10	10	10	0.65	0.15000000000000002	0.25	0.65	0.95865892696381	1.4246279258728123	1.6128666241963738	1.0259659643173198	-0.46596899890900223		1.9300849094390895	1.9773154449462886		1	30	4	5	4	3	8	5	1.7109231396898714	2.3597759056091263	1.1428937460581492	1.9830091834068333	1.9255299186706538	-1.2168821595509771	1.8703944087028483	1.6660825284322083	1.8247653400897992	1.7169587421417205	0	0	10	5	1	0	5	10	0	3	0	2	1	0	3	0			0.95865892696381	1.4246279258728123	2.3597759056091263		1.4634847679138232	1.0259659643173198		2.077501567204798		1.7089599227905268	1.6995320320129397		2.0699099159240717	
sub-03	ses-009	run-4	29	11	8	12	40	20	0.32499999999999996	0.8511072291782782	1.1947952316547286	2.1540873917666303	1.8062531471252488	1.9639436570803344	-0.6114579154705202	10	4	6	9	0	6	4	1	10	10	10	10	0.6	0.0	0.19999999999999996	0.5	1.1028432140350362	1.6394381809234622	1.4031146160761514	0.9604654619428901	-0.536594966888426		2.2120507065455066	2.1258165025711016	1.9193910598754869	3	26	9	2	3	5	7	5	1.0598102166036494	1.9532432587941457	1.1072819977540267	2.2960746955871536	1.515144524574275	-0.845961261040119	1.654533678690595	1.8972848281860408	2.0675319712502653	1.8189200172424307	0	2	10	2	1	0	5	9	0	5	0	1	3	1	1	0		1.9228699350357061	1.1028432140350362	1.3560064268112182	2.013989906311025		1.2809395580291767	0.9604654619428901		2.3408222465515083		1.5681930065155	2.3470566558837853	1.9193910598754869	1.4620960426330498	
sub-03	ses-009	run-5	32	8	6	14	40	20	0.5	1.3660217462809552	1.1664014741778392	2.119301182031632	1.8576256990432753	1.9341948168618337	-0.6912242248654361	12	3	6	11	0	5	2	1	12	8	8	12	0.7	0.07500000000000001	0.45	0.6166666666666667	0.9491041000684151	1.5038080342610602	1.6223466348648117	1.0627358237179843	-0.5547039341926452		1.7745074844360367	2.482253952026362	3.1173641300201496	1	31	7	1	4	2	9	5	2.0369665919050695	1.8597630310058548	1.1440349723446774	2.088390760421753	2.3356741333007847	-0.7157280586611774	1.9438567733764671	1.6851635503768918	1.949474814732871	1.9066908206939672	0	1	12	2	0	0	6	11	0	4	0	1	2	1	0	0		1.8597630310058548	0.9491041000684151	1.325830535888663			1.6223466348648117	1.0627358237179843		1.63421582221985		2.3356741333007847	2.482253952026362	3.1173641300201496		
sub-03	ses-009	run-6	34	6	4	16	40	20	0.6499999999999999	1.8780546230667041	1.1143875652201056	1.9215212599436444	2.1111598038673414	1.8139903837442402	-0.9967722386472357	14	1	5	14	0	5	1	0	14	6	6	14	0.8	-0.033333333333333354	0.6333333333333333	0.8	0.9770018407276717	1.794969100952159	1.6499702339172373	1.0118807983398457	-0.8179672602244872		1.9014782829284669	2.0217361450195312		3	31	5	1	3	1	10	6	2.400268653311942	1.9093574110666889	1.037454999493017	1.9208898887634276	1.9246781158447268	-0.871902411573672	2.2781730270385765	1.610120134353636	1.8080856008529675	1.823831688563028	0	1	14	0	2	0	3	14	0	4	0	1	1	0	0	0		1.794969100952159	0.9770018407276717		1.9665515661239539		1.438916012446093	1.0118807983398457		1.8956783246994018		1.9246781158447268	2.0217361450195312			
sub-03	ses-010	run-1	24	16	2	18	40	20	0.5	1.5348986686804	1.3486559744675983	1.7070671147108087	1.5149224424362155	1.6101499859491981	-0.16626646796861722	6	5	7	6	0	9	7	0	6	14	14	6	0.9	0.2571428571428571	0.4	0.9	1.0092307790120447	1.5391973876953198	1.8679074437277694	0.9235032780965184	-0.529966608683275		1.7152369923061812	1.6965629863739013		7	17	10	6	1	1	9	9	1.4557352006786803	1.8604824216025313	1.1379039080002733	1.7521438875198356	1.6319391600290973	-0.722578513602258	1.4230509090423586	1.6067939758300724	1.7086146566602929	1.5116853152381031	0	3	6	2	4	0	3	6	0	5	0	4	5	0	2	0		1.8149149831136213	1.0092307790120447	1.1256209945678677	1.8946580004692137		1.8322400347391767	0.9235032780965184		1.788875396728514		1.6231889867782652	1.7154123783111572		1.6494395065307612	
sub-03	ses-010	run-2	29	11	5	15	40	20	0.475	1.2722498762385601	1.3210232428846693	2.1190549356287236	1.3738029022216793	1.9754219811757403	-0.05277965933701001	8	6	7	8	0	6	5	0	8	12	12	8	0.75	0.25	0.33333333333333337	0.75	1.095390495061876	1.6628349606196065	1.6396885108947774	1.011465092897415	-0.5674444655577304		2.166114583015452	2.0625833587646496		8	21	7	4	1	4	6	9	0.9043280115161281	1.770748219490055	1.149699442273094	2.0989231041499568	2.154285640716566	-0.6210487772169611	2.0903401279449483	1.194668595790862	2.0093683099746755	1.9527910953097836	0	3	8	3	5	0	2	8	0	4	0	2	3	0	2	0		1.8799718221028694	1.095390495061876	1.4456980991363437	1.7052140579223665		1.4758746433258056	1.011465092897415		2.1982970714569134		2.101749606132529	1.9664244810740144		2.2068216753006027	
sub-03	ses-010	run-3	30	10	1	19	40	20	0.7	2.3193433771475545	1.2898310041427645	1.9645445041656484	2.096783027648925	1.7255516935649666	-0.8069520235061607	10	4	6	10	0	6	4	0	10	10	10	10	0.95	0.35000000000000003	0.5499999999999999	0.95	1.1165083322525067	1.5909549665451084	1.780855832099924	1.048089194297789	-0.4744466342926017		1.9249663432439164	2.0239117455482463		5	25	9	1	1	0	7	12	2.2786033485044297	2.1479499931335426	1.118207206344609	2.0482040087381987	1.2116089630126936	-1.0297427867889337	2.096783027648925		1.7698825699942458	1.6996920156478872	1	0	9	4	3	1	3	9	0	5	0	1	4	0	0	0	1.7501721096038807		1.0461012458801318	1.5909549665451084	2.30125862757365	2.085801973342882	1.260453036626198	0.9327877744038899		2.067637819290161		1.2116089630126936	2.0239117455482463			
sub-03	ses-010	run-4	31	9	5	15	40	20	0.525	1.4299047765565511	1.2433669727079353	2.0746507983737494	1.9056510696411124	1.9572814706166606	-0.6622840969331771	10	3	8	10	0	7	2	0	10	10	10	10	0.75	0.04999999999999999	0.55	0.75	1.0601519775390649	1.6762829971313475	1.4967422223091158	1.0940069608688379	-0.6161310195922827		1.9309240136827703	2.5776945447921764		6	25	4	5	2	3	6	9	1.355072753458165	1.6481004889806148	1.1462309288024923	2.085798270702359	2.0657328205108625	-0.5018695601781225	2.668812589645384	1.396876722971598	1.9049885018666615	1.9921434497833266	0	1	10	2	5	0	3	10	0	3	0	4	1	0	1	0		1.9230760192871088	1.0601519775390649	1.552886486053467	1.5931053829193162		1.3361369546254487	1.0940069608688379		2.0324700196584025		1.8547645092010465	2.245783023834228		2.909606065750125	
sub-03	ses-010	run-5	32	7	7	13	39	20	0.4705128205128205	1.302641652026796	1.2102979794144628	2.2415037277766623	1.8180126776014052	2.017046133921703	-0.6077146981869423	12	5	5	10	0	3	2	2	12	8	7	12	0.65	0.275	0.3642857142857143	0.4833333333333334	1.0667931405703257	1.4730223693847628	1.5605319728851292	1.0760245943069442	-0.4062292288144371		1.8606633504231762	1.951212062835694	3.1030559587478592	7	25	4	3	3	4	5	8	1.2028228712842335	1.5650321360996753	1.1109724155426033	2.535440731048581	1.8495877234141034	-0.454059720557072	2.1392632452646887	1.5770747518539423	2.292054969787614	1.8451656115055086	0	3	12	2	4	0	1	10	0	1	0	2	1	2	1	0		1.6763076559702508	1.0667931405703257	1.1680944395065311	1.4815754961967436		1.876357879638672	1.0760245943069442		2.252436971664423		1.6647765398025527	1.683214035034183	3.1030559587478592	2.2192100906372048	
sub-03	ses-010	run-6	32	8	7	13	40	20	0.45000000000000007	1.226941699980482	1.165216417610645	1.7225275886058835	1.9635367202758789	2.160997976156387	-0.7983203026652339	11	2	5	14	3	4	1	0	14	6	6	14	0.4357142857142857	-0.016666666666666663	0.4833333333333334	0.65	1.1000077750466075	1.6020099973678619	1.4046064014434811	1.0685562740053445	-0.5020022223212544	1.7449732685089145	1.6438634777069119	1.969846992492677		0	32	4	4	2	5	3	10	1.516110983768996		1.165216417610645	1.5173949289321946	1.9276602482795724		2.4461379861831674	1.7704962139129634	2.1462552833557167	2.1654207839965878	0	0	11	2	0	0	5	14	1	3	2	1	0	0	1	0			1.1000077750466075	1.6020099973678619			1.4046064014434811	1.0685562740053445	0.7347938632965167	1.778261950810754	2.2500629711151134	1.2406680583953855			1.969846992492677	
sub-03	ses-011	run-1	26	14	3	17	40	20	0.5	1.4217538559013576	1.377635734631467	1.9463790076119571	1.6404932753245067	1.925375130597283	-0.2628575406930398	6	7	7	6	0	7	7	0	6	14	14	6	0.85	0.35	0.35	0.85	0.9357593266169223	1.5912448242732486	1.9673335184369733	0.882320790290842	-0.6554854976563264		1.915934366498675	1.976823648725239		8	18	11	3	2	1	6	11	1.5191922800963988	1.79971079349518	1.1900468195809277	2.018988925760444	1.6801426410675047	-0.6096639739142522	1.890293941497809	1.140891942977902	2.2117079544067386	1.76919359033758	0	5	6	2	3	0	4	6	0	4	0	3	7	0	0	0		1.608719545364383	0.9357593266169223	1.547558021545413	2.1180295403798417		1.8543115019798222	0.882320790290842		2.0927781605720526		1.6801426410675047	1.976823648725239			
sub-03	ses-011	run-2	32	8	5	15	40	20	0.55	1.516110983768996	1.269019572734833	1.916749465465545	1.8747642974853478	1.7402074178059956	-0.6057447247505148	8	6	10	8	0	6	2	0	8	12	12	8	0.75	0.25	0.5833333333333334	0.75	0.9599871623516107	1.627727568944292	1.6080417680740346	0.8852432417869589	-0.6677404065926813		2.04273324171702	1.5387981367111214		9	23	5	3	4	1	8	7	1.8339720532242652	1.8062066480848498	1.0588159345543917	2.008640287399292	1.763598095575967	-0.747390713530458	1.9156080746650659	1.711389188766475	1.8622523522377072	1.6007274927411825	0	4	8	2	5	0	5	8	0	3	0	3	2	0	0	0		1.6853970789909312	0.9599871623516107	1.512388548851014	1.9028543033599845		1.3132292327880848	0.8852432417869589		2.3218683878580726		1.763598095575967	1.5387981367111214			
sub-03	ses-011	run-3	32	8	4	16	40	20	0.6000000000000001	1.6832424671458286	1.2369297707080873	1.9077018082141879	1.7312760615348832	1.9017135924100852	-0.49434629082679593	10	4	8	10	0	6	2	0	10	10	10	10	0.8	0.2	0.6000000000000001	0.8	0.9572318239212041	1.6740803170204188	1.6908897995948813	0.978599475860603	-0.7168484930992147		1.8028673950831102	2.222205047607421		4	28	4	4	2	2	7	9	1.805952078252641	2.013374335765839	1.12600911855698	2.102164049148561	1.713239567279815	-0.8873652172088589	1.8950725841522171	1.5674795389175493	1.9128538090842113	1.8930489794413203	0	1	10	3	3	0	5	10	0	3	0	3	1	0	1	0		1.887880144119265	0.9572318239212041	1.60281370798747	2.0552057329813636		1.4723002395629918	0.978599475860603		2.0844564024607357		1.5212783877054852	2.155286989212037		2.2891231060028048	
sub-03	ses-011	run-4	31	9	8	12	40	20	0.375	1.008762129496269	1.1158412770302075	1.934734963311091	1.9860440051555637	1.8296587872505208	-0.8702027281253562	10	6	5	10	0	4	5	0	10	10	10	10	0.6	0.19999999999999996	0.09999999999999998	0.6	0.9752023277282735	1.6270058027903218	1.241343973159792	0.8870301628112813	-0.6518034750620483		1.9571704792976394	1.9167865505218522		1	30	5	4	4	4	4	8	1.516110983768996	1.7456549358367963	1.0948474884033212	2.1009676094055196	1.7269441556930554	-0.6508074474334751	2.3436259841918936	1.6284620261192337	1.9724894857406718	1.7582434380054452	0	1	10	5	0	0	5	10	0	3	0	1	2	0	3	0		1.7456549358367963	0.9752023277282735	1.603275976181027			1.241343973159792	0.8870301628112813		2.0961123402913437		1.540344896316526	2.108250513076783		1.7891439088185652	
sub-03	ses-011	run-5	35	5	9	11	40	20	0.425	1.2760107272310819	1.411661748068673	1.929960521698007	1.9447538640764053	2.124708553661	-0.5330921160077322	12	5	6	12	0	3	2	0	12	8	8	12	0.55	0.175	0.3	0.55	1.238744560082752	1.7938145446777347	1.8549346033732068	1.2037121764818852	-0.5550699845949827		1.9312447802225894	1.928034133911133		4	31	3	2	7	2	6	5	2.0369665919050695	2.3578008699417055	1.2895792807302173	2.0368904876709117	1.7695655727386495	-1.0682215892114881	2.1183685071127782	1.337102613449101	2.1923997672398925	2.0434790973663297	0	2	12	3	2	0	4	12	0	2	0	1	1	0	1	0		2.5828976774215704	1.238744560082752	1.267759122848511	2.1327040624618405		1.71604987382889	1.2037121764818852		1.9194361495971892		1.9548620414733904	2.2717991638183577		1.5842691040039083	
sub-03	ses-011	run-6	32	8	4	16	40	20	0.6000000000000001	1.6832424671458286	1.110282269120216	2.1880316627025636	1.5806280708312954	2.0293200552463575	-0.4703458017110793	13	3	2	14	1	3	4	0	14	6	6	14	0.7285714285714286	0.3	0.1333333333333333	0.8	1.0727618085421038	1.3292973772684735	1.5156390810012823	1.0402827719279704	-0.25653556872636973	3.5743461132049674	1.822711003621419	2.115443544387821		1	31	4	4	2	2	7	9	2.0369665919050695	1.6626101398468016	1.092465241032262	2.214167563915252	2.161895761489875	-0.5701448988145397	1.8701900625228802	1.2910660791397106	2.011970618111746	2.0428140619066113	0	1	13	2	0	0	2	14	0	1	1	2	3	0	1	0		1.6626101398468016	1.0727618085421038	1.1626409959793094			1.5156390810012823	1.0402827719279704		1.9871050453186	3.5743461132049674	1.7405139827728284	2.289855070114136		1.592208967208876	
sub-03	ses-012	run-1	25	15	3	17	40	20	0.475	1.355072753458165	1.3522697597503686	2.1771040242513013	2.50087137858074	1.860788241554709	-1.1486016188303716	6	4	9	6	0	10	5	0	6	14	14	6	0.85	0.1357142857142857	0.4928571428571429	0.85	0.9279143047332757	1.9599665856361366	1.59868491808574	1.0018712600072253	-1.0320522809028607		2.009016436576844	2.513279199600217		8	17	7	8	3	0	5	12	1.770845558267262	1.9303077864646934	1.0802518648259802	2.4141507407597125	1.9696881473064418	-0.8500559216387131	2.50087137858074		2.0729864044189457	1.772372340361277	0	3	6	1	5	0	4	6	0	3	0	7	4	0	1	0		2.088778069814043	0.9279143047332757	1.573532133102418	1.8352256164550838		1.3030090451240603	1.0018712600072253		2.22478703816732		1.916543321609497	2.556173517704007		2.3417019271850563	
sub-03	ses-012	run-2	31	9	7	13	40	20	0.42500000000000004	1.140735492768037	1.3986901766254056	1.9291896841261145	2.1020683561052578	1.9211661896338883	-0.7033781794798522	8	6	9	8	0	6	3	0	8	12	12	8	0.65	0.15000000000000002	0.4	0.65	0.9900211465358773	1.766743362744651	1.7872790654500328	1.0941568171977938	-0.7767222162087737		2.0289913511276283	1.729586350123088		8	23	4	5	5	2	6	7	1.4706699918173927	2.0226780295372038	1.181650923438693	2.335965068340303	1.6037693767547636	-0.8410271060985108	2.2784462623596147	1.6611235904693658	1.9605617189407454	1.8873985930851538	0	4	8	2	4	0	5	8	0	3	0	3	1	0	2	0		1.9700942754745512	0.9900211465358773	1.3600415372848502	2.0752617835998564		1.5568928909301742	1.0941568171977938		2.3017004172007263		1.7562822850545297	2.438759021759033		1.3750000143051153	
sub-03	ses-012	run-3	29	11	4	16	40	20	0.5249999999999999	1.4393813596153926	1.2575519867601093	2.109960030642421	1.9386082053184543	1.8840786892175674	-0.6810562185583451	10	3	6	10	0	7	4	0	10	10	10	10	0.8	0.09999999999999998	0.39999999999999997	0.8	1.0808351688385038	1.3120026397705165	2.07266344388326	0.9288667345047024	-0.23116747093201262		2.0737315123421802	2.1733599376678434		4	25	3	8	4	0	4	12	2.2786033485044297	2.407504711151123	1.073559550857547	2.1218752702077217	2.1054918158054337	-1.3339451602935761	1.9386082053184543		2.1592339491844204	1.7923602692286165	0	0	10	3	4	0	2	10	0	1	0	6	2	0	2	0			1.0808351688385038	1.3120026397705165	2.407504711151123		1.4029809093475336	0.9288667345047024		2.236644887924193		2.0465792830785117	2.064490461349486		2.282229413986201	
sub-03	ses-012	run-4	34	6	7	13	40	20	0.5	1.4217538559013576	1.4117633000542142	2.0009165414174412	1.9285552011217473	1.696913055273202	-0.516791901067533	9	6	9	10	1	4	1	0	10	10	10	10	0.55	0.25	0.55	0.65	1.1050750456915952	1.768689427375797	1.8732965215047201	1.0582471532821665	-0.6636143816842017	2.5974658679962204	1.9024793887138394	1.7981158256530705		6	28	6	0	5	2	4	9	1.805952078252641	2.065504282315572	1.2716759467124947	2.0009165414174412		-0.7938283356030773	2.065876934051522	1.58525086879731	1.8404861474037146	1.6331027921040853	1	3	8	3	2	0	7	10	1	4	0	0	1	0	0	0	1.6807279872894298	1.955979286829631	1.033118427991866	1.581399567921963	2.4221799230575547		1.7164726924896243	1.0582471532821665	2.5974658679962204	1.9024793887138394			1.7981158256530705			
sub-03	ses-012	run-5	33	7	1	19	40	20	0.7749999999999999	2.5794429180249527	1.2537614981333436	2.0598495578765843	1.5807758998870869	1.7417971641138992	-0.3270144017537433	12	4	5	12	0	4	3	0	12	8	8	12	0.95	0.45	0.575	0.95	1.0603432822227508	1.8829801344871537	1.5919744033813508	1.09651812473933	-0.822636852264403		2.1461354660987837	1.9448016802469847		4	29	5	2	0	1	5	14	2.242613752993951	1.9468008804321286	1.15816985919558	2.1386011734008763	1.862970519065854	-0.7886310212365486		1.5807758998870869	1.979138170242308	1.657032519068039	1	3	11	1	0	0	5	12	0	3	0	1	2	0	1	0	1.7980278778076126	1.9963918813069672	0.9932810462604906	1.542744894027713			1.5919744033813508	1.09651812473933		2.1779582881927504		2.050666999816883	2.0795655012130645		1.675274038314825	
sub-03	ses-012	run-6	36	4	5	15	40	20	0.65	1.956041315740682	1.227340844737162	1.6542780971527087	1.9258836879730203	1.9807494646708155	-0.6985428432358582	13	5	5	13	1	1	1	1	14	6	6	14	0.6785714285714286	0.5833333333333334	0.5833333333333334	0.6785714285714286	1.0962204060187741	1.9911652603149488	1.6243522396087697	0.9119859717442446	-0.8949448542961747	2.0610321521758976	1.817435073852536	1.29557204246521	1.443073120117191	4	32	3	1	3	2	6	9	2.1231727991175147	2.122188258171091	1.115484918057921	1.7738467820485415	1.29557204246521	-1.0067033401131702	1.9375943819681776	1.908317646980285	2.023486067454018	1.9522583961486804	0	3	13	2	1	0	4	13	1	1	0	0	0	1	1	0		2.1389036750793573	1.0962204060187741	1.7695576381683358	2.072042007446292		1.5124297976493892	0.9119859717442446	2.0610321521758976	1.817435073852536				1.443073120117191	1.29557204246521	
sub-03	ses-013	run-1	26	14	2	18	40	20	0.55	1.6668720319521682	1.4004108084165143	2.2015305294309355	2.142000637054444	1.9696390681796625	-0.7415898286379299	6	7	7	6	0	7	7	0	6	14	14	6	0.9	0.4	0.4	0.9	0.8591730753580743	1.903265709195818	1.5280433981759234	1.2060798025131227	-1.0440926338377436		2.085057969774519	2.318003089087352		10	16	9	5	1	1	6	12	1.3915065238156732	1.8243827419281033	1.1354283499717712	2.1906100961897144	2.221187309265133	-0.6889543919563321	2.636606121063231	1.6473951530456574	2.1064208030700704	1.9012482007344582	0	5	6	2	5	0	2	6	0	3	0	4	6	0	1	0		1.93294394493103	0.8591730753580743	1.8290701198577883	1.7158215389251765		1.0585980463027909	1.2060798025131227		2.135188090006518		2.047460379600519	2.218321099281313		2.916095027923589	
sub-03	ses-013	run-2	27	13	3	17	40	20	0.525	1.4901955796636694	1.2936149367579735	1.7419061132577742	2.3749159399668396	1.7842719807344327	-1.0813010032088661	8	6	6	7	0	6	6	1	8	12	12	8	0.85	0.35	0.35	0.725	1.032205160856254	1.6780201737085978	1.5762487363815296	1.0206212207249277	-0.6458150128523439		1.8549305359522499	1.7749968751271556	0.8652150058746315	6	21	7	6	1	2	6	11	1.3442583434878141	1.999098211924234	1.0920482867104706	1.8477360507420109	1.618437852859498	-0.9070499252137634	2.253992013931281	2.4353779029846185	1.9723797353108725	1.6816677509654654	0	3	8	3	3	0	3	7	0	4	0	2	2	1	4	0		2.012561833063765	1.032205160856254	1.343478514353431	1.9856345907847033		1.166862881978356	1.0206212207249277		2.0178786396980266		1.5290343284606962	1.998711395263669	0.8652150058746315	1.663139615058899	
sub-03	ses-013	run-3	28	12	2	18	40	20	0.6	1.805952078252641	1.1082366555077712	1.7209194755554211	2.1056800556182793	1.6206368382771819	-0.9974434001105081	10	1	7	10	0	9	3	0	10	10	10	10	0.9	0.0	0.6	0.9	0.9902197294235243	1.6223200798034725	1.42316107341222	0.9543981466293335	-0.6321003503799482		1.748652933968439	1.6377191003163674		3	25	4	8	2	0	7	11	2.2786033485044297	1.5969277509053557	1.049593724060061	1.7062718057632487	1.7282433104515071	-0.5473340268452946	2.1056800556182793		1.8379357978275839	1.4823556821996533	0	1	10	0	2	0	5	10	0	2	0	7	2	0	1	0		1.6223200798034725	0.9902197294235243		1.5842315864562972		1.3587328681945892	0.9543981466293335		1.6615725135803237		1.7735330540793288	1.7509710979461737		1.4112151050567547	
sub-03	ses-013	run-4	27	13	0	20	40	20	0.675	2.413726174709934	1.1364110745324045	1.84683259963989		1.8191196656227144		9	3	5	10	1	7	5	0	10	10	10	10	0.9	0.3	0.5	1.0	0.9487614546881775	1.2658743794759175	1.6840846805572507	0.9926199378967319	-0.31711292478774	1.0459269809722969	1.9273930631365062	1.894229074478146		2	25	11	2	0	0	8	12	2.2786033485044297	2.183356623649601	1.052655430603029	1.770082796270195	2.268956518173212	-1.1307011930465722			1.9391546714305907	1.7390963284174636	0	1	9	2	1	0	4	10	1	5	0	2	5	0	0	0		1.6147880458831878	0.9487614546881775	1.0914175462722824	2.7519252014160145		1.4171245503425598	0.9926199378967319	1.0459269809722969	1.7907676811218238		2.268956518173212	1.894229074478146			
sub-03	ses-013	run-5	32	8	2	18	40	20	0.7000000000000001	2.1231727991175147	1.1790569290518782	1.880101015567783	1.4063289165496826	1.7522020541297054	-0.22727198749780442	12	4	4	12	0	4	4	0	12	8	8	12	0.9	0.4	0.4	0.9	0.9518862692515088	1.8174748635292026	1.5916246652603192	1.0558990319569925	-0.8655885942776939		1.9081241512298628	1.8520778799057034		2	30	4	4	1	1	9	9	2.3193433771475545	2.180085864067074	1.1123216667175317	1.9790468883514385	1.7811551427841277	-1.0677641973495422	1.7200738143920944	1.0925840187072708	1.9753778478834367	1.5290262603759741	0	1	12	3	0	1	4	11	0	2	0	2	2	0	2	0		2.347395820617677	0.9518862692515088	1.640834544499711		2.0127759075164704	1.5916246652603192	0.968910225087949		1.9591633701324433		1.8570849323272824	1.9989304065704339		1.705225353240973	
sub-03	ses-013	run-6	32	8	0	20	40	20	0.8	2.801585218112969	1.1033815655112273	1.7154955387115516		1.5515263934135448		14	1	4	13	0	5	2	1	14	6	6	14	1.0	0.16666666666666666	0.6666666666666666	0.9285714285714286	0.9973244891847897	2.0785250186920194	1.7370225048065286	0.9476194007580065	-1.0812005295072298		1.6265936107635497	1.9345585918426558	1.7218790721893529	1	31	3	5	0	0	8	12	2.7153790109005236	1.8435710334777864	1.079504485899403	1.863665418624888	1.6265936107635497	-0.7640665475783834			1.7544523024559053	1.4162424540519714	0	0	14	1	1	0	3	13	0	0	0	5	2	1	0	0			0.9973244891847897	2.0785250186920194	1.8435710334777864		1.701506328582776	0.9476194007580065				1.6265936107635497	1.9345585918426558	1.7218790721893529		
sub-03	ses-014	run-1	13	27	0	20	40	20	0.325	1.506201794370175	1.2626640312488286	1.3423314935189714		1.3869292917251599		6	0	2	5	0	14	12	1	6	14	14	6	1.0	0.0	0.14285714285714285	0.8333333333333334	0.9267880233128901		2.3319055080413804	1.2380186500549342			1.3617489862442036	1.431370298862457	0.0020209312438908	2	11	2	25	0	0	1	19	1.3622038584975762	2.3319055080413804	1.0682564900138194	1.0533320283889651	1.365451450729372	-1.263649018027561			2.169733963012675	1.3457290458679223	0	0	6	0	2	0	0	5	0	0	0	14	1	1	11	0			0.9267880233128901		2.3319055080413804			1.2380186500549342				1.3617489862442036	2.1046431255340394	0.0020209312438908	1.3701636782559496	
sub-03	ses-014	run-2	17	23	1	19	40	20	0.375	1.4557352006786803	1.0362101336086482	1.5118456512948786	1.7484210109710716	1.3697741142072175	-0.7122108773624234	8	1	0	8	0	11	12	0	8	12	12	8	0.95	0.033333333333333326	-0.05	0.95	0.887463904619218	1.3645680618286065		1.1439116215705836	-0.4771041572093885		1.58306392756376	1.4465622313817377		1	16	2	21	1	0	0	19	1.7066168814042548	1.74229097366333	0.9920800811052306	2.052902526855476	1.4603164250510123	-0.7502108925580995	1.7484210109710716			1.3697741142072175	0	0	8	1	0	1	0	7	0	1	0	10	1	0	11	0			0.887463904619218	1.3645680618286065		1.74229097366333		1.0584288569859055		2.0386300945282017		1.5375073108673154	2.06717495918275		1.3901428924907364	
sub-03	ses-014	run-3	19	21	1	19	40	20	0.425	1.582146849008259	1.2288939179872231	1.7018967869168244	1.4697920703887917	1.5800134166918318	-0.24089815240156853	9	1	0	9	1	9	10	1	10	10	10	10	0.85	0.05	-0.05	0.85	1.2653029452429903	1.1496909809112594		1.2012852170732298	0.11561196433173082	1.6255060386657725	1.6111384285820844	1.7960778512954696	1.6533021163940873	1	18	4	17	0	1	2	17	1.5191922800963988	1.95296308517456	1.1886678531434822	1.909045038223275	1.653156021903542	-0.7642952320310779		1.4697920703887917	2.3512821149826024	1.4892759227752705	1	0	8	1	0	0	0	9	1	1	0	8	1	1	9	0	1.95296308517456		1.179345427751544	1.1496909809112594				1.2012852170732298	1.6255060386657725	2.1041330242156846		1.5495141041278844	2.253238973617556	1.6533021163940873	1.74528217103746	
sub-03	ses-014	run-4	19	20	1	19	39	20	0.4371794871794872	1.6127118336241344	1.248860987111144	1.804883348464968	2.692445068359376	1.602918151554308	-1.4435840812482321	8	2	1	8	2	7	9	2	10	9	10	10	0.75	0.17222222222222222	0.05	0.75	1.2722896230220782	1.6086480140686028	2.259169025421187	1.0091970896720897	-0.33635839104652465	1.3044144821166976	1.9997459793090857	1.6288915506998716	2.415296096801761	2	17	2	18	0	1	0	19	1.4834745842172337	2.147752003669762	1.1431091028101301	2.7371610069274865	1.7012969419691326	-1.0046429008596318		2.692445068359376		1.602918151554308	1	0	7	2	1	0	0	8	0	1	2	6	0	1	9	1	2.036334981918337		1.1631402860368982	1.6086480140686028	2.259169025421187			1.0091970896720897		2.8902849006652787	1.3044144821166976	1.85132282574972		2.5840371131896944	1.6288915506998716	2.2465550804138275
sub-03	ses-014	run-5	23	17	3	17	40	20	0.42499999999999993	1.2255518157665821	1.0995263692607058	1.3305572627572495	2.0316402371724394	1.4983790554719814	-0.9321138679117336	10	0	2	11	2	8	6	1	12	8	8	12	0.6833333333333333	-0.15	0.1	0.7666666666666666	1.1620821924209621		1.6278078746795686	0.9466062563115885		1.3761734342575238	1.4367503392696446	1.204188496271767	1.1479929065704368	2	21	1	16	2	1	1	16	1.7075604048946866	1.6293774843216013	1.0490643583025252	2.039388961792014	1.2862552815675767	-0.5803131260190761	2.2382709074020397	1.6183788967132386	2.006855897903449	1.4665992528200147	1	0	9	0	1	0	1	11	0	1	2	7	0	0	6	1	1.6453420734405595		1.1083866500854513		1.613412895202643		1.642202854156494	0.9466062563115885		2.039388961792014	1.3761734342575238	1.3506591074807346			1.204188496271767	1.1479929065704368
sub-03	ses-014	run-6	26	14	4	16	40	20	0.45	1.2269416999804819	1.1736497317827672	1.9964660378864834	2.1531856083869982	1.734409773945811	-0.979535876604231	14	0	1	11	0	6	5	3	14	6	6	14	0.8	-0.2	-0.033333333333333354	0.5857142857142856	1.0477150065558296		2.5308870315551744	1.210545082092287			2.1362441778182943	1.6704698638915971	2.2602367146810045	1	25	3	11	3	1	4	12	1.963492990915848	2.5308870315551744	1.119360239791871	2.329609651565548	1.905608688701284	-1.4115267917633034	2.117427126566573	2.2604610538482746	1.914242577552802	1.674465506076814	0	0	14	0	1	0	0	11	0	3	0	3	0	0	5	3			1.0477150065558296		2.5308870315551744			1.210545082092287		2.329609651565548		1.9428787040710411			1.6704698638915971	2.2602367146810045
sub-03	ses-015	run-1	22	18	4	16	40	20	0.35000000000000003	0.9672825804279883	1.446198351599957	1.6607008833355361	1.8748180603980975	1.7599633741378808	-0.4286197087981405	6	3	7	6	0	11	7	0	6	14	14	6	0.8	0.014285714285714263	0.3	0.8	1.2020940860112528	1.9591754404703796	1.7551765169416242	1.073339546521505	-0.7570813544591268		1.6352156639099107	1.7007490852900904		7	15	8	10	4	0	5	11	1.6413246205756793	1.9140778296334489	1.2278545951843276	1.8214078760147048	1.532135289192201	-0.6862232344491213	1.8748180603980975		2.058735059738159	1.624158062501391	0	2	6	1	5	0	2	6	0	6	0	5	2	0	5	0		2.2428870773315452	1.2020940860112528	1.3917521667480486	1.7825541305542103		1.686732482910159	1.073339546521505		1.7152692953745492		1.539151306152344	2.1398236179351713		1.5251192722320581	
sub-03	ses-015	run-2	23	17	2	18	40	20	0.475	1.4706699918173927	1.3306703389209251	1.7459924641777502	1.755282583236717	1.5900518178939822	-0.4246122443157918	8	1	6	8	0	11	6	0	8	12	12	8	0.9	-0.016666666666666677	0.4	0.9	0.9931268203258536	2.06073796272278	1.9271402406692504	1.1296029782295207	-1.0676111423969266		1.7903688812255878	1.664635699590048		6	17	4	13	2	0	2	16	1.770845558267262	1.9545220375061039	1.1104873864790974	2.0183905601501486	1.6621776654170122	-0.8440346510270065	1.755282583236717		2.0859265184402496	1.5280674803256988	0	1	8	0	5	0	1	8	0	2	0	9	2	0	4	0		2.06073796272278	0.9931268203258536		1.9332788524627684		1.89644718170166	1.1296029782295207		2.3134240198135387		1.6741344059838208	1.7233571004867585		1.6352749991416928	
sub-03	ses-015	run-3	25	15	2	18	40	20	0.525	1.6001909295089756	1.2662410606384273	1.7909935245513984	1.8447059011459286	1.7862773805194432	-0.5784648405075012	10	3	3	9	0	7	7	1	10	10	10	10	0.9	0.19999999999999998	0.19999999999999998	0.8	1.13590046405792	1.9002643076578813	1.9415590063730832	0.9746168814765096	-0.7643638435999613		1.9344082736969028	1.7934377179827103	0.7699809265136821	4	21	9	6	1	1	10	8	1.7075604048946866	2.1346805286407458	1.1008240191141763	1.7992632060580884	1.778589002291363	-1.0338565095265695	1.862272882461553	1.827138919830304	1.8014909830093409	1.7672603774070712	0	2	10	1	2	0	1	9	0	2	0	5	6	1	1	0		2.1712384986877478	1.13590046405792	1.3583159255981485	2.0981225585937437		1.628431901931762	0.9746168814765096		1.9725494289398249		1.919151811599734	1.9130481783549105	0.7699809265136821	1.0757749557495089	
sub-03	ses-015	run-4	22	18	2	18	40	20	0.45000000000000007	1.4072129123996746	1.1673438366976667	1.7680859253141652	1.5949218845367419	1.6427671109305477	-0.42757804783907516	8	1	4	9	2	9	6	1	10	10	10	10	0.7000000000000001	0.0	0.30000000000000004	0.8	1.1356438803672773	1.6599768352508557	1.5224043679237376	0.9829798952738492	-0.5243329548835785	1.673909854888926	1.8061662218305798	1.72566351731619	1.868249845504764	2	20	9	9	1	1	5	13	1.6448536269514729	1.9026043415069562	1.0938177862167378	1.947991976208161	1.5881798744201694	-0.8087865552902185	1.898335952758792	1.2915078163146916	2.1231184768676754	1.458016585570114	0	1	8	0	1	0	3	9	2	4	0	5	2	1	4	0		1.6599768352508557	1.1356438803672773		2.145231847763057		1.3147952079772978	0.9829798952738492	1.673909854888926	2.1220956087112413		1.5534227123260507	1.9137378978729345	1.868249845504764	1.6316263270378177	
sub-03	ses-015	run-5	28	12	2	18	40	20	0.6	1.805952078252641	1.2131736046927326	1.722631742159529	1.986277856826785	1.799804095692105	-0.7731042521340523	10	2	4	12	2	6	4	0	12	8	8	12	0.7333333333333334	0.15	0.4	0.9	1.1001718044281013	1.5903084135055536	1.563056406974793	1.1278583693504352	-0.4901366090774524	1.5241969442367775	1.8753980588913006	1.5926996660232464		4	24	3	9	2	0	6	12	2.213311087675854	1.8796006631851192	1.1021024282773348	1.9768235747019414	1.637901131312058	-0.7774982349077844	1.986277856826785		1.9908472712834662	1.7042825078964245	1	1	9	1	2	0	2	12	0	1	2	5	2	0	2	0	1.836386852264404	1.939411993026738	1.01837013244629	1.241204833984369	1.8713019037246674		1.2548109102249185	1.1278583693504352		1.7381169414520272	1.5241969442367775	1.9028542823791554	2.0961768913268983		1.0892224407195945	
sub-03	ses-015	run-6	35	5	2	18	40	20	0.775	2.4319009459206082	1.1822534408569345	1.9109901943206808	2.03416150569916	1.9700355540381556	-0.8519080648422255	14	3	4	14	0	3	2	0	14	6	6	14	0.9	0.4	0.5666666666666667	0.9	0.903897281374248	2.539771792093911	1.6732792830467247	1.0294197130203289	-1.6358745107196628		1.4819533507029234	2.5545454597473167		3	32	4	1	1	1	9	9	2.486474860524387	2.572000770568844	1.051964628696443	2.129855995178225	1.035526990890503	-1.5200361418724009	2.444882984161381	1.6234400272369385	2.0043207126193576	1.9357503954569535	0	2	14	1	1	0	3	14	0	2	0	1	2	0	0	0		2.96623060703277	0.903897281374248	1.6868541622161928	1.7835410976409918		1.6365253448486357	1.0294197130203289		1.7051665306091337		1.035526990890503	2.5545454597473167			
sub-03	ses-016	run-1	20	20	1	19	40	20	0.45	1.6448536269514729	1.3230575861930893	1.9720773253440858	1.3100331211090008	1.73957870433205	0.013024465084088499	6	3	5	6	0	11	9	0	6	14	14	6	0.95	0.16428571428571426	0.30714285714285716	0.95	0.8692336050669383	2.2629650910695553	1.822579034805301	0.890659941037498	-1.393731486002617		1.8109655215523481	2.168991752200654		5	15	12	8	1	0	5	14	1.6413246205756793	2.1885924682617284	1.0345459588368764	2.1506572381655342	1.704207456111913	-1.154046509424852	1.3100331211090008		2.197366682052612	1.576082998003278	0	2	6	1	3	0	2	6	0	6	0	5	6	0	3	0		2.3577270793915015	0.8692336050669383	2.0734411144256626	2.0758360608418793		1.442693495750433	0.890659941037498		1.9602135658264157		1.6318678684234669	2.3411009105046525		1.8247734355926564	
sub-03	ses-016	run-2	30	10	4	16	40	20	0.55	1.516110983768996	1.482746595064803	1.9167002925872771	2.550907194614407	1.9453239011764525	-1.0681605995496037	8	5	9	8	0	7	3	0	8	12	12	8	0.8	0.21666666666666667	0.55	0.8	1.0436483776569427	2.1402839565277216	1.9798658710055885	0.9516247761249561	-1.096635578870779		1.8394814286913177	2.0968776416778496		13	17	6	4	4	0	5	11	1.770845558267262	2.084327274469233	1.0227143108143568	2.0916258192062336	1.654312002658843	-1.0616129636548763	2.550907194614407		2.287717159271241	1.789690602042458	0	5	8	0	8	0	1	8	0	3	0	4	3	0	0	0		2.1402839565277216	1.0436483776569427		2.0493543481826775		1.4239580535888765	0.9516247761249561		2.086373996734617		1.654312002658843	2.0968776416778496			
sub-03	ses-016	run-3	34	6	7	13	40	20	0.5	1.4217538559013576	1.5025655415478898	1.893579387664797	1.82445230620248	1.9692450501368588	-0.3218867646545902	10	6	8	10	0	4	2	0	10	10	10	10	0.65	0.25	0.45000000000000007	0.65	1.1897628011703543	1.7951992416381868	2.3169595229625717	0.9882728767395011	-0.6054364404678325		1.719829921722413	2.2410783195495654		7	27	2	4	4	3	4	9	1.4901955796636694	2.0722197832380016	1.3548774048134162	2.5639628410339412	1.558387660980225	-0.7173423784245854	1.9380886292457582	1.6729372088114427	2.3417636466026313	1.8036812294854043	0	3	10	3	4	0	4	10	0	1	0	3	1	0	1	0		1.7892199548085579	1.1897628011703543	1.8011785284678155	2.284469654560084		2.3494493913650594	0.9882728767395011		2.102656898498537		1.5922209294637046	3.025268783569345		1.4568878555297855	
sub-03	ses-016	run-4	29	11	4	16	40	20	0.5249999999999999	1.4393813596153926	1.361876558435375	1.8932574532248787	1.728843748569492	1.6688595473766334	-0.36696719013411716	10	4	5	10	0	6	5	0	10	10	10	10	0.8	0.2	0.3	0.8	1.2381179380416854	1.8072607350349437	2.0926318092346152	0.9421038827896169	-0.5691427969932583		1.785640314420067	2.0223980197906526		8	21	6	5	4	0	1	15	2.0226707624832683	2.0515511167049385	1.099143393380303	1.9877681430180854	1.779844625473031	-0.9524077233246355	1.728843748569492		1.8398550701141367	1.6574598458607999	0	3	10	1	5	0	0	10	0	2	0	4	4	0	1	0		1.983083295822145	1.2381179380416854	1.27979305267334	2.0926318092346152			0.9421038827896169		2.0743154191970756		1.6413027620315628	1.9444945049285904		2.334012079238903	
sub-03	ses-016	run-5	35	5	4	16	40	20	0.675	1.9919706139489222	1.3770686678205233	2.271360427856444	2.169589745998386	1.9674994975328453	-0.7925210781778627	12	4	7	12	0	4	1	0	12	8	8	12	0.8	0.3	0.675	0.8	1.210511780579887	2.106121022701264	1.8565620844704793	1.0209036103884384	-0.8956092421213768		2.2621460247039766	2.308218040466315		6	29	4	1	4	0	7	9	2.557724110582533	2.0960357268651375	1.2283168625009482	2.2422740221023534	2.387706050872808	-0.8677188643641893	2.169589745998386		2.0528621973310197	1.9011062865787096	0	3	12	1	3	0	4	12	0	3	0	1	1	0	0	0		1.9311573759714769	1.210511780579887	2.631011962890625	2.260914077758798		1.5532980895042403	1.0209036103884384		2.2202926826476994		2.387706050872808	2.308218040466315			
sub-03	ses-016	run-6	29	11	2	18	40	20	0.625	1.8793116915870787	1.314858634554109	2.08718991279602	2.420069146156308	2.0037985367245152	-1.1052105116021993	11	2	2	14	3	4	4	0	14	6	6	14	0.6857142857142857	0.2333333333333333	0.2333333333333333	0.9	1.3048972875421712	2.6917985391616845	2.0289030647277855	1.0239733593804528	-1.3869012516195134	2.1709497928619377	2.1527230644226085	1.9588368511199936		7	22	10	1	2	0	12	6	2.0856253313951285	2.18401890890939	1.0383076381683378	2.060243000030516	2.3566590404510634	-1.1457112707410522	2.420069146156308		2.0939443341891	1.8235069417953464	2	2	9	0	2	1	0	13	2	4	1	0	4	0	0	0	2.169909062385557	2.6917985391616845	1.1126724486880855		2.0289030647277855	1.5069110298156758		0.9868243078085125	2.0780951690673746	2.1527230644226085	2.3566590404510634		1.9588368511199936			
sub-03	ses-017	run-1	14	26	1	19	40	20	0.3	1.259533160543905	1.2560456010155456	1.9583602290666824	1.7969772190321225	1.9749787571344923	-0.5409316180165769	6	1	1	6	0	13	13	0	6	14	14	6	0.95	0.021428571428571422	0.021428571428571422	0.95	1.1297107128581598	3.210810022007209	1.8786864780122408	0.9528129395082049	-2.081099309149049		1.8974038294177993	2.0193166287155657		2	12	7	19	1	0	3	16	1.4355634718320136	2.5447482500097247	1.0412618261831825	2.0014862340256303	1.942471700923912	-1.5034864238265422	1.7969772190321225		2.1400475900465015	1.9440283509634906	0	1	6	0	1	0	0	6	0	3	0	10	4	0	9	0		3.210810022007209	1.1297107128581598		1.8786864780122408			0.9528129395082049		2.0822287726937767		1.841956346435006	1.94092933002452		2.0541554281338086	
sub-03	ses-017	run-2	19	21	1	19	40	20	0.425	1.582146849008259	1.4717491967711414	1.8822680247874435	2.244473826966725	1.929337860930979	-0.7727246301955837	6	2	3	8	2	10	9	0	8	12	12	8	0.7	0.11666666666666665	0.2	0.95	1.078774402477234	2.554350878975825	2.371421905979517	1.15845260598726	-1.4755764764985908	1.4915026354801313	1.7278646440790084	2.140664089865107		5	14	6	15	1	0	4	15	1.5746435181324867	2.44459349517804	1.124304804482963	2.5932438691507627	1.5978776870421156	-1.320288690695077	2.244473826966725		2.2757553722325286	1.8369598579172326	0	2	6	0	3	0	0	8	0	1	2	9	5	0	4	0		2.554350878975825	1.078774402477234		2.371421905979517			1.15845260598726		2.6795164180034803	1.4915026354801313	1.6221255580874003	2.575989359380219		1.5965075029712175	
sub-03	ses-017	run-3	22	18	0	20	40	20	0.55	2.0856253313951285	1.275059980999535	1.786284076111235		1.7212377137978323		10	3	0	9	0	7	10	1	10	10	10	10	1.0	0.3	0.0	0.9	0.9401530576890813	2.2150038633511095		1.3338641572272922	-1.2748508056620282		1.8606510648547132	1.771987212902865	1.4086837869905864	3	19	6	12	0	0	2	18	1.8972572065968407	2.2150038633511095	1.1266477890492865	2.0171446286619195	1.6708537998358928	-1.088356074301823			2.3435637495154538	1.6520903764958743	0	3	10	0	0	0	0	9	0	2	0	5	4	0	6	1		2.2150038633511095	0.9401530576890813					1.3338641572272922		2.081097719002294		1.7724724031956811	1.9851680834917325		1.6298666325102869	1.4086837869905864
sub-03	ses-017	run-4	22	18	0	20	40	20	0.55	2.0856253313951285	1.16198230075957	1.8876033690990874		1.8614391286345224		9	3	0	10	1	7	10	0	10	10	10	10	0.9	0.3	0.0	1.0	0.9481626328800117	1.9527193929821607		1.1171988741843952	-1.004556760102149	2.119908744981516	2.026466941978183	1.7671683304954775		3	19	5	13	0	0	5	15	1.8972572065968407	2.0177236303283568	1.026865248722393	2.290533355587159	1.732630297372906	-0.9908583816059637			2.16863298218325	1.7590411774516133	0	2	9	1	0	1	0	9	0	3	1	4	2	0	8	0		2.0566799334914023	0.9481626328800117	1.7447983119636774		1.9398110240022657		1.0257975242046318		2.3358434983071255	2.119908744981516	1.7944345247314768	2.2225681415072103		1.6533183777425444	
sub-03	ses-017	run-5	25	15	2	18	40	20	0.525	1.6001909295089756	1.2407698714587863	1.9416363428242849	2.019651866526109	1.9735629599115845	-0.7788819950673229	11	1	1	12	1	7	7	0	12	8	8	12	0.8166666666666667	0.024999999999999994	0.024999999999999994	0.9	1.2172270569222199	2.0919555620453423	2.69168368399842	1.0705091595234564	-0.8747285051231224	1.0600272760214295	1.8327727037468715	2.176444134302106		1	24	4	11	1	1	2	16	1.8982007300872725	2.69168368399842	1.180315129269635	2.567737987766746	1.7139630173906626	-1.511368554728785	2.176655060003977	1.8626486730482408	2.8233333130052785	1.8673416657748727	0	0	11	1	1	0	0	12	0	1	1	6	3	0	4	0			1.2172270569222199	2.0919555620453423	2.69168368399842			1.0705091595234564		2.574655616024984	1.0600272760214295	1.7091255517005195	2.5654321116806664		1.8847031512681856	
sub-03	ses-017	run-6	30	10	3	17	40	20	0.6	1.7109231396898714	1.0093399334646906	1.5730373991918776	1.6131557629994973	1.5723681576415793	-0.6038158295348066	13	1	2	14	1	5	4	0	14	6	6	14	0.7785714285714286	0.016666666666666663	0.18333333333333332	0.85	0.9361302379214262	1.6161908360174877	1.8081195319723307	0.9198625007857163	-0.6800605980960615	2.772233551980463	1.4987202995950373	1.3661347354907816		2	28	1	9	2	1	3	14	2.1692541396595137	1.8081195319723307	0.952284247857002	2.772233551980463	1.439793382215368	-0.8558352841153286	1.9310824169940446	0.9773024550104026	2.0011500099867874	1.480486332139035	0	0	13	1	2	0	0	14	1	0	0	5	0	0	4	0			0.9361302379214262	1.6161908360174877	1.8081195319723307			0.9198625007857163	2.772233551980463			1.4987202995950373			1.3661347354907816	
sub-03	ses-018	run-1	23	17	1	19	40	20	0.5249999999999999	1.8339720532242652	1.4374869742037988	1.979662593020375	2.357790021032564	1.8800436726591156	-0.9203030468287654	6	4	7	6	0	10	7	0	6	14	14	6	0.95	0.2357142857142857	0.45	0.95	0.9372999458666934	2.0379433640290507	1.9189998215942539	0.9756047540352052	-1.1006434181623574		2.0732341268167396	1.8459889733112829		6	17	9	8	1	0	4	15	1.770845558267262	2.2253724996966824	1.159409729912193	2.1766997801341734	1.7579957575173522	-1.0659627697844893	2.357790021032564		2.3973559337767076	1.742093736361091	0	4	6	0	2	0	5	6	0	5	0	5	4	0	3	0		2.0379433640290507	0.9372999458666934		2.6002307710319457		1.6465074418191772	0.9756047540352052		2.2442975994185503		1.9021706542149288	2.092202506028702		1.5177042630213908	
sub-03	ses-018	run-2	27	13	1	19	40	20	0.625	2.0986158171213525	1.3822188028636289	2.1896255343093984	2.6866150220064497	1.5866796650510844	-1.304396219142821	8	3	8	8	0	9	4	0	8	12	12	8	0.95	0.2	0.6166666666666666	0.95	0.9231598743828364	1.7450713203459383	1.9161579457658773	1.1712688943863065	-0.8219114459631018		2.210511449445301	2.1426322252536174		8	19	7	6	1	0	1	18	1.8972572065968407	2.0678514080151187	1.0935313901682644	2.4245264177094255	1.9155745036760337	-0.9743200178468543	2.6866150220064497		1.7885488529782805	1.57546471016624	0	2	8	1	5	1	3	7	0	5	0	4	2	0	2	0		1.9891560085106192	0.9231598743828364	1.256901944016576	2.0670014970181456	2.229491762008984	1.6647520270120968	1.0200941990116383		2.4545002438002337		1.9055254565016355	2.349591852482405		1.93567259802483	
sub-03	ses-018	run-3	27	13	2	18	40	20	0.5750000000000001	1.73531375571448	1.3049933843178407	1.7636327949116166	1.729645417487486	1.615697941591887	-0.4246520331696453	10	5	2	10	0	5	8	0	10	10	10	10	0.9	0.4	0.1	0.9	0.9076852152857467	2.3295789323775127	2.0465573939879107	1.0416959773860845	-1.4218937170917658		1.7964245907831908	1.7431379224918828		6	21	7	6	2	0	3	15	2.0226707624832683	2.366569448647018	1.0016859373666473	1.9538723979913624	1.5416865913185802	-1.3648835112803706	1.729645417487486		2.0793788793054424	1.522961754049176	0	4	10	1	2	0	0	10	0	3	0	2	4	0	4	0		2.5265754759765713	0.9076852152857467	1.5415927579812774	2.0465573939879107			1.0416959773860845		1.9108343106500432		1.6248100109829124	1.9861509634973515		1.500124881486414	
sub-03	ses-018	run-4	29	11	1	19	40	20	0.6749999999999999	2.242613752993951	1.2615418440862252	1.8036532095565698	1.7712264440115604	1.6983242500756006	-0.5096845999253352	10	3	6	10	0	7	4	0	10	10	10	10	0.95	0.25	0.5499999999999999	0.95	0.9850619412178674	1.6858988933513501	1.8622982273592328	1.0502608022112412	-0.7008369521334827		1.6377711952976632	2.093946734509657		5	24	4	7	1	0	3	16	2.213311087675854	1.9833034798325992	1.111174836639064	2.202929100263863	1.575495557723831	-0.8721286431935353	1.7712264440115604		1.9878253877054206	1.6440427867700096	0	2	10	1	3	0	3	10	0	2	0	5	2	0	2	0		1.7505925660300932	0.9850619412178674	1.556511547993864	2.1384440890342704		1.586152365684195	1.0502608022112412		2.0498929060180693		1.4729225110095008	2.355965294509658		1.831928174509656	
sub-03	ses-018	run-5	33	7	3	17	40	20	0.6749999999999999	1.9710226805672697	1.2652654705492956	1.684798196402179	1.6565719029850687	1.6099024841514	-0.3913064324357731	12	4	6	11	0	4	2	1	12	8	8	12	0.85	0.35	0.6	0.7666666666666666	1.0272945493083276	1.6170219654880915	2.0701379754685334	0.9579372928784777	-0.5897274161797639		1.3292223772179579	2.581134352992521	1.3144291599583795	8	25	2	5	2	1	1	16	1.963492990915848	2.0333100893464873	1.019491192534194	2.167786948999858	1.4916026953631074	-1.0138188968122932	2.07070732697845	0.8283010549983061	2.11143503899919	1.5785566994734133	0	2	12	2	6	0	0	11	0	1	0	3	1	0	1	1		1.9228264309803489	1.0272945493083276	1.3112174999958341	2.0701379754685334			0.9579372928784777		1.3975604410027174		1.3064430226230381	2.9380134569969982		2.224255248988044	1.3144291599583795
sub-03	ses-018	run-6	32	8	2	18	40	20	0.7000000000000001	2.1231727991175147	1.3364398685446939	1.627265656860251	1.2495054575032576	1.8962945561514606	0.08693441104143629	12	3	3	14	2	3	3	0	14	6	6	14	0.7571428571428571	0.4	0.4	0.9	1.1182785990646036	2.0624844369812254	2.0098656476591708	1.2235487393381264	-0.9442058379166218	1.645256869486758	1.7419366439843174	1.5006005279851802		5	27	0	8	1	1	6	12	2.0986158171213525	2.0308471685871488	1.2078459240923873		1.627265656860251	-0.8230012444947614	1.2891268550069128	1.2098840599996024	2.272096097323035	1.7083937855656732	2	2	10	1	1	0	2	14	0	0	2	3	0	0	3	0	1.727267153984869	2.124077749979916	0.9964808880805507	1.9392978109838444	2.4515460350061744		1.7890254539856691	1.2235487393381264			1.645256869486758	1.7419366439843174			1.5006005279851802	
sub-03	ses-019	run-1	16	24	3	17	40	20	0.25	0.7830862863579902	1.1789984355529313	1.8575205993251707	2.199170374001065	1.674987557287849	-1.0201719384481336	6	1	3	6	0	13	11	0	6	14	14	6	0.85	-0.07857142857142857	0.06428571428571428	0.85	0.9093168373231322	1.6717864959896644	2.0486969446406427	0.9316994358327525	-0.7624696586665323		1.6610595055239776	2.0897018919993076		3	13	10	14	3	0	2	15	1.506201794370175	2.0486969446406427	0.9782987796096132	2.2878465892844844	1.5501448922113747	-1.0703981650310295	2.199170374001065		1.840383753500646	1.6529347311261426	0	0	6	1	3	0	0	6	0	3	0	10	7	0	4	0			0.9093168373231322	1.6717864959896644	2.0486969446406427			0.9316994358327525		2.1858672709716607		1.5036171758896728	2.3315520114185517		1.6664641830156302	
sub-03	ses-019	run-2	29	11	2	18	40	20	0.625	1.8793116915870787	1.2353636091692268	1.856490339900535	0.9743603059952193	1.6436256184405655	0.26100330317400755	8	7	6	8	0	5	6	0	8	12	12	8	0.9	0.4833333333333334	0.4	0.9	1.0410963416253765	1.550961503854825	1.5029227004968533	0.9528134003674591	-0.5098651622294486		1.6759048129944134	2.0069782789889694		3	26	4	7	1	1	3	15	2.0301740933590406	1.9669302473186245	1.1509520739981425	2.076097501239854	1.731000533420924	-0.8159781733204821	1.798856019023816	0.1498645929666224	2.2439326640063357	1.5235642093274113	0	2	8	5	1	0	5	8	0	1	0	4	3	0	3	0		1.9845940559904633	1.0410963416253765	1.3775084830005695	1.9316026299749467		1.4171867146012347	0.9528134003674591		2.058539613012691		1.580246112989844	2.081950130648908		1.932006427329031	
sub-03	ses-019	run-3	25	15	0	20	40	20	0.625	2.2786033485044297	1.273349412401486	1.66626235600965		1.529265432556975		10	1	4	10	0	9	6	0	10	10	10	10	1.0	0.1	0.4	1.0	1.3049628467082512	0.9427228440158046	2.069616759005001	0.9562916962918827	0.3622400026924466		1.7516619966753524	1.5381628950110962		4	21	5	10	0	0	3	17	2.0226707624832683	2.2492123475193466	1.087470758093322	1.892658352605539	1.5530643577117054	-1.1617415894260246			1.9515458179878398	1.4547453645397634	2	0	8	1	2	0	2	10	0	2	0	7	3	0	3	0	2.1162063690228337		1.1021519661296058	0.9427228440158046	2.3822183260158596		1.7570151919941426	0.9562916962918827		2.068051586002124		1.6612649711534178	1.7757295303411487		1.3005962596810434	
sub-03	ses-019	run-4	26	14	3	17	40	20	0.5	1.4217538559013576	1.2829760260956116	1.9172487859566012	2.1237904080127614	1.9415088837784173	-0.8408143819171499	10	4	3	9	0	6	7	1	10	10	10	10	0.85	0.25	0.15	0.75	1.1285833813133634	2.1411335670232106	1.6250978186889558	0.9590794601325064	-1.0125501857098471		1.7526863670314237	2.045728233173228	2.0052671689912813	6	20	6	8	3	0	6	11	1.9599639845400545	2.0042407100240234	1.066596620917088	2.239746871851004	1.6753752215357989	-0.9376440891069353	2.1237904080127614		2.0464247563469704	1.8842820441955708	1	4	9	0	1	0	2	9	0	3	0	3	2	1	5	0	1.8761971540120328	2.1411335670232106	1.0455151843468447		1.584712838039266		1.6452903090138005	0.9590794601325064		2.179405060354628		1.3259676737082193	2.44749944052543	2.0052671689912813	1.8850197502323467	
sub-03	ses-019	run-5	31	9	4	16	40	20	0.575	1.5970362599333834	1.3682879066640032	2.072778625323752	2.22392681798199	1.9630386805540203	-0.855638911317987	11	3	6	11	1	5	2	1	12	8	8	12	0.7166666666666666	0.175	0.55	0.7166666666666666	1.1746963640776535	1.607825568999009	1.713343112316993	1.3083390655300846	-0.43312920492135554	2.4160883890162665	1.7406310163824816	2.39962576500956	2.7365126269659754	4	27	5	4	2	2	8	8	1.73531375571448	1.9942225637467343	1.2755568463554507	2.0996003183950807	2.0392515089845915	-0.7186657173912836	2.0707495994691243	2.377104036494856	1.9044774734883714	2.0215998876196695	0	1	11	2	3	0	3	11	1	2	0	3	2	0	0	1		2.078261361017354	1.1746963640776535	1.3726076729898367	1.9662096313231945		1.4604765933107917	1.3083390655300846	2.4160883890162665	1.6413308364700083		1.8068311363241305	2.39962576500956			2.7365126269659754
sub-03	ses-019	run-6	30	10	3	17	40	20	0.6	1.7109231396898714	1.1167591144893485	1.9520558158881065	1.8042561329815838	1.757110230337062	-0.6874970184922353	13	1	2	14	1	5	4	0	14	6	6	14	0.7785714285714286	0.016666666666666663	0.18333333333333332	0.85	1.055500672372383	1.7959059429890516	1.2876527544821101	1.1007180887061574	-0.7404052706166686	2.03371635801858	1.8253440805906436	2.090030349477317		2	28	6	4	2	1	9	8	2.1692541396595137	2.0854996334877924	1.0475633631323167	2.053332834988838	1.80014028723701	-1.0379362703554758	1.910224656983045	1.592319084978662	1.9958110532092133	1.488571804605892	0	1	13	0	0	1	2	13	1	3	0	2	2	0	2	0		1.7959059429890516	1.055500672372383			2.3750933239865333	1.2876527544821101	1.0026892244538208	2.03371635801858	1.9652569279889578		1.615474809493172	2.1952549339737857		1.9848057649808482	
sub-03	ses-020	run-1	17	23	1	19	40	20	0.375	1.4557352006786803	1.125536510090977	1.6575225541204144	2.378636931043588	1.588533926876139	-1.253100420952611	6	2	3	6	0	12	11	0	6	14	14	6	0.95	0.09285714285714285	0.16428571428571426	0.95	0.9267065331995757	1.9357930025330319	1.4963332540169272	0.8688826175387186	-1.009086469333456		1.6473533696978155	1.6686162098541586		3	14	9	14	1	0	6	13	1.5746435181324867	1.8626959096795588	0.9675737816077097	1.874753180588855	1.5178742942478454	-0.8951221280718491	2.378636931043588		1.6980329416956117	1.5379959200363822	0	1	6	1	2	0	1	6	0	4	0	8	5	0	6	0		2.1556524590239974	0.9267065331995757	1.7159335460420664	1.7162176350073395		1.0565644920361024	0.8688826175387186		2.0101042655226795		1.4659779217853837	1.7664723126417954		1.587069457531128	
sub-03	ses-020	run-2	23	17	1	19	40	20	0.5249999999999999	1.8339720532242652	1.1872109987146389	1.6522027117708316	2.07938021503389	1.5000582869067869	-0.892169216319251	8	3	4	8	0	9	8	0	8	12	12	8	0.95	0.2	0.2833333333333333	0.95	0.929945915517747	2.078773531353415	1.3475980170158404	1.029946623021389	-1.148827615835668		1.6205344035660063	1.6878295585012604		4	19	5	12	1	0	5	14	1.8972572065968407	1.857644376023675	1.0460671298074735	1.907719929202932	1.5457372045074564	-0.8115772462162014	2.07938021503389		1.9393780676252241	1.3431583652216308	1	3	7	0	0	0	4	8	0	2	0	7	3	0	5	0	1.1942569100344542	2.078773531353415	0.8921872020153602				1.3475980170158404	1.029946623021389		1.6495963840081767		1.612230980582529	2.0798022926661024		1.4526459180023552	
sub-03	ses-020	run-3	26	14	3	17	40	20	0.5	1.4217538559013576	1.2098000295615183	1.7439376227299896	2.2445057483545203	1.701725419904788	-1.034705718793002	9	3	4	10	1	7	6	0	10	10	10	10	0.75	0.15	0.25	0.85	0.9756133310253668	1.7000380866827218	1.5981974940293036	1.1181376553205795	-0.724424755657355	1.5747848060028635	1.848089955733823	1.6506187036800382		3	23	5	9	3	0	3	14	2.149082410812847	1.748063392682629	1.1395917648065907	2.0380614734049893	1.580535483466101	-0.6084716278760383	2.2445057483545203		2.371224814696854	1.5582612638779165	0	2	9	1	1	0	3	10	1	2	0	5	2	0	4	0		1.810358668020939	0.9756133310253668	1.479396924006288	1.6234728420060094		1.5897723780370683	1.1181376553205795	1.5747848060028635	2.1472411265049622		1.7284294874253674	2.160520154006079		1.3956679785170176	
sub-03	ses-020	run-4	24	16	2	18	40	20	0.5	1.5348986686804	1.0759741866084136	1.6818839827326872	1.7456092169752822	1.5687233814326824	-0.6696350303668686	10	1	4	9	0	9	6	1	10	10	10	10	0.9	0.0	0.30000000000000004	0.8	0.9717512576822201	1.245826985002509	1.562980506484747	0.9564576545375808	-0.27407572732028884		1.7055852834311214	1.7329530754751328	1.1621577199921092	1	23	5	11	1	1	1	17	1.8339720532242652	2.1431710179871857	1.0295743243745539	2.2012640863847905	1.4458021174362767	-1.1135966936126318	1.8095725429919585	1.681645890958606	1.678079597007013	1.5622906628694866	0	0	10	1	1	0	3	9	0	3	0	6	2	0	4	1			0.9717512576822201	1.245826985002509	2.1431710179871857		1.3695836693172676	0.9564576545375808		1.9913737903186142		1.562691029987375	2.5160995304840554		1.3413798479706713	1.1621577199921092
sub-03	ses-020	run-5	27	13	1	19	40	20	0.625	2.0986158171213525	1.185881333212043	1.4070372813030245	1.5831746299867504	1.5007353266778296	-0.39729329677470737	12	0	3	12	0	8	5	0	12	8	8	12	0.95	-0.05	0.325	0.95	1.0703999780752984		2.10444914632865	1.0717207350696354			1.4531205466209227	1.3333040567943868		2	25	2	11	1	0	2	17	2.2786033485044297	2.365660838499899	1.0914989727890143	1.852881098485084	1.3259747690881043	-1.2741618657108846	1.5831746299867504		2.331125871487884	1.4030423214060583	0	0	12	0	2	0	1	12	0	2	0	6	0	0	5	0			1.0703999780752984		2.365660838499899		1.5820257619861522	1.0717207350696354		1.852881098485084		1.319867029332869			1.3333040567943868	
sub-03	ses-020	run-6	28	12	1	19	40	20	0.6499999999999999	2.1692541396595137	0.9987587931136871	1.609535621094788	2.550151809996464	1.295610162900691	-1.551393016882777	13	0	1	14	1	6	5	0	14	6	6	14	0.8785714285714286	-0.05	0.11666666666666665	0.95	0.9646651786255932		1.4282044389797477	0.9997424604336272		0.9804512930335534	1.5818610713335979	1.7685619464204627		0	28	5	7	1	0	2	17	2.4843644972480954		0.9987587931136871	2.0103538898043345	1.323236857730826		2.550151809996464		1.9264966714882767	1.2213882207139164	0	0	13	0	0	0	1	14	0	2	1	4	3	0	2	0			0.9646651786255932				1.4282044389797477	0.9997424604336272		1.9637303714896568	0.9804512930335534	1.3909264212555685	2.041436235347453		1.3592505130299766	
sub-03	ses-021	run-1	19	21	0	20	40	20	0.475	1.8972572065968407	1.347680607585382	1.8698885900298852		1.5810499029385434		6	1	6	6	0	13	8	0	6	14	14	6	1.0	0.07142857142857142	0.42857142857142855	1.0	0.9252156279142957	1.7495360250863996	2.035067629048136	1.0157826628768778	-0.8243203971721039		1.8529112278075475	1.897476803641184		5	14	10	11	0	0	3	17	1.5746435181324867	2.2231179532613567	1.0350244127011052	2.231209981944413	1.5414145973803146	-1.1880935405602515			1.9965499853901558	1.5077263589764942	0	1	6	0	4	0	2	6	0	6	0	7	4	0	4	0		1.7495360250863996	0.9252156279142957		2.341513435305096		1.422176016534216	1.0157826628768778		2.2370063063929178		1.5236868747343733	2.222515495271656		1.5724381120107118	
sub-03	ses-021	run-2	27	13	1	19	40	20	0.625	2.0986158171213525	1.4719220185429918	1.8815118612674975	1.6618356799706788	1.8237569156463131	-0.18991366142768706	8	2	9	8	0	10	3	0	8	12	12	8	0.95	0.11666666666666665	0.7	0.95	1.124365401827971	1.9922221199493038	1.9834343620845034	1.1139522234222339	-0.8678567181213328		1.9040449447650452	1.8064015829423379		10	17	4	9	1	0	8	11	1.770845558267262	1.9868163862722035	1.169042978702279	2.001265437450492	1.8282880496306109	-0.8177734075699246	1.6618356799706788		2.46190837246424	1.3596467652332755	0	1	8	1	9	0	0	8	0	3	0	7	1	0	2	0		2.017254603961504	1.124365401827971	1.9671896359371035	1.9834343620845034			1.1139522234222339		2.0134364802887035		1.857162858112049	1.9647523089358567		1.7272262199455781	
sub-03	ses-021	run-3	24	16	1	19	40	20	0.5499999999999999	1.8982007300872725	1.1373579468727522	1.73024565968226	1.854314355058591	1.6170501767263121	-0.7169564081858388	10	1	4	9	0	9	6	1	10	10	10	10	0.95	0.05	0.35000000000000003	0.85	0.9131732341479569	1.7534351880382744	1.8723116837465188	0.9913529400491257	-0.8402619538903174		1.5960954051645873	1.8639561922250671	2.135334755084472	3	21	5	11	1	0	2	17	2.0226707624832683	2.196973067675716	0.9859843581866143	2.1619080518540015	1.5340354814223778	-1.2109887094891016	1.854314355058591		2.047827508551997	1.5663704906291729	0	1	10	0	2	0	2	9	0	1	0	8	4	0	2	1		1.7534351880382744	0.9131732341479569		2.418742007494437		1.3258813599986006	0.9913529400491257		2.5796064330404533		1.4731565266801039	2.0574834565573883		1.4769016635604255	2.135334755084472
sub-03	ses-021	run-4	28	12	0	20	40	20	0.7	2.4843644972480954	1.4147657065347978	1.4565661807858863		1.6621462632371131		10	4	5	9	0	6	5	1	10	10	10	10	1.0	0.4	0.5	0.9	1.3310896700401824	1.853497970249737	2.1141515432624187	0.9241992761401635	-0.5224083002095545		1.4077514278547187	1.2542810288416262	2.760880458094192	7	21	1	11	0	0	2	18	2.0226707624832683	2.2398484804647607	1.13973811522481	1.8933922070032023	1.4168547238570393	-1.1001103652399506			2.051280747579881	1.6189090983101388	0	3	10	1	4	0	1	9	0	1	0	5	0	0	5	1		2.133188233662707	1.3310896700401824	1.014427180010827	2.3198436655663013		1.2913830540468894	0.9241992761401635		1.8933922070032023		1.310623272025022			1.2542810288416262	2.760880458094192
sub-03	ses-021	run-5	27	13	0	20	40	20	0.675	2.413726174709934	1.2050158460151958	1.7595980464817542		1.4783754522376722		11	1	3	12	1	7	5	0	12	8	8	12	0.9166666666666666	0.125	0.375	1.0	1.0328878630304026	2.46699266490063	1.8317021726071896	1.1009635138628047	-1.4341048018702274	2.6340654159477026	1.8465792320948122	1.4629309127302832		4	23	3	10	0	0	2	18	2.149082410812847	1.9905247956805496	1.068405593899482	1.9225004979424796	1.7107273110435366	-0.9221192017810675			2.177183058455121	1.4007301626579556	0	1	11	0	3	0	0	12	0	2	1	5	1	0	4	0		2.46699266490063	1.0328878630304026		1.8317021726071896			1.1009635138628047		2.037800015967804	2.6340654159477026	1.7700909185456155	1.691901461891831		1.4056882754398963	
sub-03	ses-021	run-6	27	13	1	19	40	20	0.625	2.0986158171213525	1.1430425365919399	1.5951601990104627	1.9383729279786337	1.3512343441050394	-0.7953303913866938	13	0	0	14	1	6	6	0	14	6	6	14	0.8785714285714286	-0.05	-0.05	0.95	1.0334289671204868			1.2448265653868604		2.107884280914448	1.4195873959440177	1.6852789884262436		3	24	4	9	1	0	2	17	2.213311087675854	2.029339305944736	1.0322554404228403	1.865946793413025	1.4748106014982132	-0.9970838655218957	1.9383729279786337		1.7052627424756057	1.3095839442967374	0	0	13	0	0	3	0	11	1	1	0	5	2	0	4	0			1.0334289671204868			2.029339305944736		1.0308685452347126	2.107884280914448	1.899352643913588		1.3236343463501037	1.7282751244120318		1.6637809204333498	
sub-03	ses-022	run-1	18	22	1	19	40	20	0.4	1.5191922800963988	1.2705846016222853	1.9752800766482357	2.086975003941916	1.9584764952376787	-0.8163904023196307	6	2	4	6	0	12	10	0	6	14	14	6	0.95	0.09285714285714285	0.2357142857142857	0.95	0.9324917242885581	1.9153460369375601	1.833429116709162	1.018527323793003	-0.982854312649002		1.9595517495522887	1.9941540691633715		5	13	14	8	1	0	7	12	1.506201794370175	2.026856502554385	0.9797107935714777	1.9790878836132044	1.9686164144595395	-1.0471457089829075	2.086975003941916		2.1832472221220702	1.8273602378884508	0	2	6	0	3	0	1	6	0	6	0	6	8	0	2	0		1.9153460369375601	0.9324917242885581		2.101196812965602		1.0301260279398434	1.018527323793003		1.9892729286306192		1.929830570473958	1.9714490998501435		2.0849739464162838	
sub-03	ses-022	run-2	27	13	4	16	40	20	0.47500000000000003	1.2953834237427937	1.523279683637018	1.525546896483821	1.7706107507762496	1.2896918909435107	-0.2473310671392317	8	4	7	8	0	8	5	0	8	12	12	8	0.8	0.1333333333333333	0.38333333333333336	0.8	1.1226686020026708	2.0451243347709536	2.085824119564407	1.1707420582679315	-0.9224557327682827		1.4359858118934792	1.6688446318283685		11	16	4	9	3	1	1	15	1.3915065238156732	1.9309869659171335	1.2429809270694383	1.8704178112640508	1.3722709343592747	-0.6880060388476952	1.8765278343530365	1.4528595000458893	1.662978762034327	1.2648060995374562	0	4	8	0	5	2	2	6	0	2	0	6	2	0	3	0		2.0451243347709536	1.1226686020026708		2.0764898622017314	1.3389549874979991	2.109159762971096	1.114671081857909		1.7665757430018871		1.3257891681906766	1.9742598795262145		1.4652344666964712	
sub-03	ses-022	run-3	25	15	4	16	40	20	0.425	1.1602605975372893	1.4651133488170804	1.8061924081463399	1.8193139165127654	1.6093876878314781	-0.354200567695685	9	3	5	8	1	7	5	2	10	10	10	10	0.7	0.09999999999999998	0.3	0.6000000000000001	1.4322869871313566	1.9691003660066126	1.6693733896128777	1.1853853487700725	-0.536813378875256	1.404092605989426	1.6353962037260044	1.905744534008204	2.3561487100413103	6	19	3	12	3	1	1	15	1.582146849008259	1.8098122143566922	1.356261075488782	2.2563096473847204	1.6936630983367447	-0.4535511388679101	1.8696331186887534	1.6683563099848016	2.105710764005778	1.5762994827531915	1	1	8	2	4	0	1	8	0	1	1	6	1	1	4	1	2.1082814110349943	1.6875034620100848	1.3477876841434018	2.1098988180048766	1.765772103273768		1.283778534969315	1.1853853487700725		2.356898283027107	1.404092605989426	1.5151458571758205	2.219085770063103	2.192944889063952	1.8274092249944793	2.5193525310186686
sub-03	ses-022	run-4	22	18	6	14	40	20	0.25000000000000006	0.650061859563115	1.326902872219006	1.9585970723124495	1.8279187186900636	1.8131751010490476	-0.5010158464710577	9	2	4	7	1	8	6	3	10	10	10	10	0.6000000000000001	-0.09999999999999998	0.10000000000000003	0.39999999999999997	1.2071378351468627	1.7324734450667156	1.7978792157920527	1.0958798455992462	-0.525335609919853	1.988349773096843	1.8538874035264543	1.745125035545792	2.654849362346956	5	17	1	17	2	4	0	14	0.6525028073001217	1.8311214906526725	1.1786032785620453	2.060803042063469	1.9525849564447426	-0.6525182120906272	2.3793135585496334	1.552221298760279		1.8131751010490476	0	2	9	0	2	1	2	6	0	1	1	7	0	0	6	3		1.7324734450667156	1.2071378351468627		2.05641241555335	1.5778357320232317	1.5393460160307555	1.015553864528582		2.060803042063469	1.988349773096843	1.824328026592595			1.745125035545792	2.654849362346956
sub-03	ses-022	run-5	25	15	3	16	40	19	0.46710526315789475	1.3217873316269089	1.322199797856811	1.7899965790367383	1.5580231610359654	1.7452206346514854	-0.23582336317915442	11	2	2	10	1	6	6	2	12	8	8	12	0.7587719298245614	0.09210526315789475	0.09210526315789475	0.6754385964912282	1.350679012305021	1.7535062435222815	1.149287117493813	1.2391939089032853	-0.4028272312172605	2.904033511071475	1.302494764033861	2.102129726188725	1.7590841165720406	3	22	5	10	2	1	4	12	1.7455176054933441	2.065964626042799	1.2207773212859943	2.050061192031947	1.6599642725391337	-0.8451873047568048	1.8057850745436763	1.0624993340205435	2.046198664268015	1.6448946247793088	2	1	9	1	0	0	2	10	0	1	1	5	3	1	3	1	2.0651824065670468	2.067529064994304	1.191900480246793	1.4394834220502588			1.149287117493813	1.2391939089032853		1.8602002230379784	2.904033511071475	1.1909536722330378	2.2401069056816993	1.6697850200766595	1.9641525466957503	1.8483832130674216
sub-03	ses-022	run-6	31	9	4	16	40	20	0.575	1.5970362599333834	1.3082422259129995	2.1662882635576883	2.327638487040531	1.9983454985352052	-1.0193962611275313	11	2	4	14	3	4	2	0	14	6	6	14	0.5857142857142856	0.1333333333333333	0.4666666666666666	0.8	1.4725177709123265	1.6439943660376595	1.6997334450006014	1.0193493579421191	-0.17147659512533298	2.0655468263585752	2.2398612059874043	2.1702545344969266		6	25	5	4	3	1	2	14	1.963492990915848	1.6843616331842097	1.2179735681679091	2.340237239581536	1.9488520435278787	-0.4663880650163006	2.378567465040836	2.174851553039616	2.4072833400266234	1.939925806893574	2	2	9	0	2	0	2	14	1	3	2	1	1	0	1	0	1.7518632349953975	1.6439943660376595	1.4104410011160884		1.6572272985195715		1.7422395914816313	1.0193493579421191	2.554307080004364	2.41425971597589	1.8211666995356808	1.7166656760219468	1.904099969975647		2.4364090990182063	
