subject	session	hit	miss	false_alarm	correct_rej	old	new	rate_hit_minus_FA	dprime	rt_hit	rt_miss	rt_FA	rt_CR	diff_rt_hit_minus_FA	hit_within	hit_between	hit_within_between	hit_between_within	miss_within	miss_between	miss_within_between	miss_between_within	old_within	old_between	old_within_between	old_between_within	rate_Hwith_min_FA	rate_Hbetw_min_FA	rate_Hwith_betw_min_FA	rate_Hbetw_with_min_FA	rt_hit_within	rt_hit_between	rt_hit_within_between	rt_hit_between_within	diff_rt_Hwith_min_Hbetw	rt_miss_within	rt_miss_between	rt_miss_within_between	rt_miss_between_within	hit_loConf	hit_hiConf	miss_loConf	miss_hiConf	FA_loConf	FA_hiConf	CR_loConf	CR_hiConf	dprime_hiConf	rt_hit_loConf	rt_hit_hiConf	rt_miss_loConf	rt_miss_hiConf	diff_rt_hitHC_minus_hitLC	rt_FA_loConf	rt_FA_hiConf	rt_CR_loConf	rt_CR_hiConf	hit_within_loConf	hit_between_loConf	hit_within_hiConf	hit_between_hiConf	hit_within_between_loConf	hit_between_within_loConf	hit_within_between_hiConf	hit_between_within_hiConf	miss_within_loConf	miss_between_loConf	miss_within_hiConf	miss_between_hiConf	miss_within_between_loConf	miss_between_within_loConf	miss_within_between_hiConf	miss_between_within_hiConf	rt_hit_within_loConf	rt_hit_between_loConf	rt_hit_within_hiConf	rt_hit_between_hiConf	rt_hit_within_between_loConf	rt_hit_between_within_loConf	rt_hit_within_between_hiConf	rt_hit_between_within_hiConf	rt_miss_within_loConf	rt_miss_between_loConf	rt_miss_within_hiConf	rt_miss_between_hiConf	rt_miss_within_between_loConf	rt_miss_between_within_loConf	rt_miss_within_between_hiConf	rt_miss_between_within_hiConf
sub-03	ses-001	57	3	4	116	60	120	0.9166666666666666	3.478768262767387	1.272662575872322	1.7323820018768288	1.84950335264206	1.1964745910414347	-0.5768407767697379	57	0	0	0	3	0	0	0	60	0	0	0	0.9166666666666666				1.272662575872322					1.7323820018768288				8	49	2	1	3	1	0	116	3.2967145914623743	1.779982993602757	1.1898347525693942	1.9555430555343631	1.2860598945617596	-0.5901482410333627	1.9244961929321296	1.6245248317718506		1.1964745910414347	8	0	49	0	0	0	0	0	2	0	1	0	0	0	0	0	1.779982993602757		1.1898347525693942						1.9555430555343631		1.2860598945617596					
sub-03	ses-002	163	77	5	115	240	120	0.6375000000000001	2.1970341829266005	1.366391779893747	1.5605615965112465	1.9250840511322047	1.4495817856995985	-0.5586922712384577	54	13	38	58	6	47	22	2	60	60	60	60	0.8583333333333334	0.17500000000000002	0.5916666666666667	0.925	1.112961751266763	1.9388367630885266	1.8493706680599002	1.1576027973766987	-0.8258750118217635	1.4309751558303805	1.581891947807151	1.4900191502137607	2.2240245723724357	34	129	17	60	5	0	10	105	2.7323946878002863	1.9924868535995515	1.2013744736457057	1.9437423509709988	1.4519937160809835	-0.7911123799538458	1.9250840511322047		1.9089410343170203	1.4058332858312723	2	9	52	4	21	2	17	56	0	14	6	33	3	0	19	2	1.8180090856552198	2.1605008930630243	1.0858445460979764	1.4400924706459075	2.002586603618804	1.3048540687561054	1.6601039241341962	1.1523438233988625		1.8980412251608736	1.4309751558303805	1.4477680119601173	2.1570142714182503		1.3847041310762096	2.2240245723724357
sub-03	ses-003	156	84	5	115	240	120	0.6083333333333334	2.116984862529813	1.282611045409472	1.5275923198745394	1.9969361381530804	1.4231269590958318	-0.7143250927436084	59	12	28	57	1	48	32	3	60	60	60	60	0.9416666666666667	0.15833333333333335	0.425	0.9083333333333333	1.2203375509229772	1.5945386878649348	1.6027542168753506	1.1241372851321565	-0.37420113694195756	1.0200490856170743	1.481665650407477	1.6269371047616021	1.3719224039713538	39	117	26	58	4	1	22	93	2.362641817797083	1.7318000539143885	1.132881375907833	1.8885961143787118	1.3657630326830137	-0.5989186780065554	2.2553066444397025	0.9634541130065912	1.710885582837195	1.355055026597875	8	8	51	4	20	3	8	54	0	11	1	37	14	1	18	2	1.791648530960087	1.761604055166237	1.130720142289705	1.2604079532623302	1.700305658340456	1.7026894156138137	1.3588756132125872	1.0919955001053978		1.899325393329972	1.0200490856170743	1.3574965376467354	1.8807042591912426	1.881060018539415	1.4295626513163262	1.1173535966873231
sub-03	ses-004	172	58	11	104	230	115	0.6521739130434783	1.974394651310455	1.3324237176429408	1.8424824469665002	1.7655550497228425	1.6127573787249074	-0.43313133207990173	55	25	38	54	2	33	20	3	57	58	58	57	0.8692601067887109	0.3353823088455772	0.5595202398800599	0.851716247139588	1.0673587375987679	1.8671952129364053	1.7350397343384605	1.071495530340407	-0.7998364753376375	1.5920976781845013	1.760979515422474	2.056177822113038	1.4813020388285334	45	127	32	26	6	5	55	49	1.8428309629260657	1.934235731760663	1.1191832401996535	1.9387813094258313	1.7239607700934771	-0.8150524915610096	1.9686743609110475	1.5218118762969965	1.6987852954864526	1.5161954313394994	4	18	51	7	21	2	17	52	1	15	1	18	14	2	6	1	1.69157628297806	1.9621167649163194	1.01840049874549	1.6231112221309123	1.9158524663107734	2.361649618148803	1.5116828301373681	1.0218742192708532	1.2692712020873955	1.854171295801799	1.9149241542816071	1.6833196984397034	2.1070288024629873	1.730379014015199	1.9375255346298228	0.9831480884552022
sub-03	ses-005	158	81	9	111	239	120	0.5860878661087866	1.8549654073141573	1.27388660877566	1.9030303660734214	1.9877202288309717	1.6826276734498178	-0.7138336200553117	55	14	31	58	5	46	29	1	60	60	60	59	0.8416666666666667	0.15833333333333333	0.4416666666666667	0.9080508474576272	1.1080012085654538	1.9710098164422178	1.8509690573907682	0.954479991485335	-0.863008607876764	1.9029918231964131	1.8172674048465238	2.031997480063606	2.1082729911803995	35	123	53	28	7	2	52	59	2.164761427348699	1.9605539093017594	1.078493474479615	1.9586093702856118	1.7978272509574895	-0.8820604348221444	2.09545486313956	1.6106490087509115	1.7505553019963793	1.6227592550697976	3	11	52	3	21	0	10	58	3	26	2	20	23	1	6	0	1.5866740576426155	1.98974693558433	1.0803854672725406	1.9023070462544733	1.9986737314860048		1.5407892417907714	0.954479991485335	1.9068740081787137	1.8810453029779295	1.8971685457229626	1.7343561372756962	2.046531466608466	2.1082729911803995	1.9762838649749759	
sub-03	ses-006	181	59	10	110	240	120	0.6708333333333333	2.070654520996605	1.3138140787472397	1.7295869523387846	1.910021103858955	1.6650444075844515	-0.5962070251117153	57	21	44	59	3	39	16	1	60	60	60	60	0.8666666666666666	0.26666666666666666	0.6499999999999999	0.8999999999999999	1.0783880799276835	1.8122604356493266	1.640229899016294	1.1204176778308412	-0.7338723557216431	1.475611302057904	1.758676785200069	1.7323484718799622	1.3128261089324835	46	135	54	5	7	3	95	15	2.117274669150225	1.8463928148020876	1.1323428057211435	1.7306782854927911	1.717800554275516	-0.7140500090809441	2.0460194138118277	1.592691713968918	1.6880969717126155	1.5190448347727472	2	17	55	4	25	2	19	57	3	34	0	5	16	1	0	0	1.7206689882278479	1.86149047907661	1.0550324105349502	1.6030327510833722	1.825307285308839	2.107355613708492	1.396707022315577	1.0857882765719764	1.475611302057904	1.7646879956301504		1.717800554275516	1.7323484718799622	1.3128261089324835		
sub-03	ses-007	178	62	27	93	240	120	0.5166666666666667	1.4039072069533267	1.2819176457437245	1.657664640488164	1.7337325774298817	1.763277624191778	-0.4518149316861573	59	25	35	59	1	35	25	1	60	60	60	60	0.7583333333333333	0.19166666666666668	0.3583333333333334	0.7583333333333333	0.98229223170523	1.8858038570404065	1.75743702180045	1.0435713064872623	-0.9035116253351766	0.1426980113983234	1.6494619222368516	1.751203255844117	1.1212610244751031	34	144	47	15	18	9	72	21	1.692878574074256	2.0232674893210922	1.1068767104546238	1.6525373124061755	1.673730268478395	-0.9163907788664685	1.910058478249448	1.3810807757907497	1.7542607065041873	1.7941927705492318	1	15	58	10	17	1	18	58	1	24	0	11	21	1	4	0	1.6413029670715389	1.9908365599314393	0.9709299776471901	1.7282548027038573	2.047478135613833	2.480114965438844	1.4835093031989215	1.0188033123674074	0.1426980113983234	1.659393509626388		1.627793004296045	1.741897638865881	1.1212610244751031	1.800057744979858	
sub-03	ses-008	189	51	14	106	240	120	0.6708333333333333	1.9895930178066328	1.2534902778504398	1.9515392957949174	1.919456651551384	1.796738418813024	-0.6659663737009442	58	28	43	60	2	32	17	0	60	60	60	60	0.85	0.35	0.6	0.8833333333333333	0.9981299388819745	1.6846359678677156	1.7116617601971307	0.9707810544967654	-0.6865060289857411	1.537524018287655	1.9211517649889016	2.0574470334894484		36	153	33	18	10	4	52	54	2.185698980751071	1.8194958954387255	1.1203124854767252	2.050975409132061	1.7692397546768204	-0.6991834099620002	2.1235833234787016	1.4091399717330901	1.9015478466107327	1.6958108216744898	1	13	57	15	22	0	21	60	1	19	1	13	13	0	4	0	0.0986910438537602	1.8022330790299639	1.0139095686193116	1.5827184715271008	1.9079150529341289		1.5060630725678945	0.9707810544967654	2.255667018890392	1.995231247450177	0.8193810176849183	1.8128817521608838	2.1167021369934043		1.8648679471015903	
sub-03	ses-009	179	61	31	89	240	120	0.4875	1.3099272634994186	1.20628036413779	1.9340793722183975	1.8549078415286184	1.758388445243407	-0.6486274773908285	59	24	38	58	1	36	22	2	60	60	60	60	0.7249999999999999	0.14166666666666666	0.37499999999999994	0.7083333333333333	0.9775145537166297	1.6572532109419529	1.6041924205579263	0.9916799563375033	-0.6797386572253232	2.015689020156856	1.8830154524909117	1.9608109638907698	2.518377594947818	21	158	39	22	19	12	42	47	1.689470306489635	1.8812279301597954	1.116572143337397	2.097147913712721	1.6450033213875515	-0.7646557868223984	1.9278091626418294	1.7394807497660338	1.8906964015960706	1.6401558033963464	0	10	59	14	11	0	27	58	1	25	0	11	11	2	11	0		1.881702515602114	0.9775145537166297	1.4969322790418378	1.8807964888485968		1.491501874217283	0.9916799563375033	2.015689020156856	1.9994156887054442		1.6184694610942474	2.250084746100684	2.518377594947818	1.6715371816808555	
sub-03	ses-010	178	61	27	93	239	120	0.5197698744769874	1.413536231418456	1.258051597830956	1.9411594615998824	1.777583094702826	1.8825086788464636	-0.5195314968718698	57	25	38	58	3	35	21	2	60	60	59	60	0.725	0.19166666666666668	0.41906779661016946	0.7416666666666667	1.0787142972778874	1.58539189605713	1.6325772717124567	1.0478230300442926	-0.5066775987792427	1.7449732685089145	1.8759294441768117	1.9672459470658075	3.1030559587478592	33	145	38	23	10	17	36	57	1.3435755102102358	1.7809981987693118	1.1390361645139508	1.9790071685690627	1.8786284674768894	-0.6419620342553609	2.22578649520874	1.5139340355817001	1.9208858741654333	1.8582704502239564	1	10	56	15	21	1	17	57	1	21	2	14	14	2	7	0	1.7501721096038807	1.8036659402847335	1.0667239792006376	1.4398758665720615	1.7571574796949139	2.085801973342882	1.47868407361648	1.0296128731443173	0.7347938632965167	1.9885898689996628	2.2500629711151134	1.706938806942535	1.8929270982742303	3.1030559587478592	2.1158836446489624	
sub-03	ses-011	188	52	33	87	240	120	0.5083333333333333	1.3812605014322525	1.2528573482594603	1.969453593767608	1.8464865048726402	1.920215245827863	-0.5936291566131799	59	31	38	60	1	29	22	0	60	60	60	60	0.7083333333333333	0.2416666666666667	0.3583333333333333	0.725	1.0411802204584673	1.6232387136643933	1.6775388514368152	1.0006778664588962	-0.5820584932059261	3.5743461132049674	1.9164032294832443	1.9664339594407532		27	161	32	20	21	12	38	49	1.7237669791515051	1.9091300770088466	1.1427991887797495	2.066653611958029	1.8139335646629349	-0.7663308882290971	2.0560299505506237	1.4797854749361694	2.0180630021346273	1.8443333123654746	0	14	59	17	13	0	25	60	0	16	1	13	16	0	6	0		1.803366186959403	1.0411802204584673	1.474898441539091	2.0230296509082475		1.4978836357116703	1.0006778664588962		2.1065250861644778	3.5743461132049674	1.682407098183265	2.0267821377515802		1.805505483945214	
sub-03	ses-012	188	52	27	93	240	120	0.5583333333333333	1.5389154017502436	1.3148590379572949	2.0436612769273608	2.0252446739761947	1.8453664237196734	-0.7103856360188998	58	28	43	59	2	32	17	1	60	60	60	60	0.7416666666666667	0.24166666666666667	0.4916666666666667	0.7583333333333333	1.0554597718140197	1.8027220657893623	1.7639757772933629	1.0110111204244328	-0.7472622939753426	2.329249010086059	2.0247539860010155	2.080981629876527	1.443073120117191	34	154	28	24	20	7	30	63	1.931836927638283	2.056555518262529	1.1511078669808146	2.1653066689627507	1.9017416528860727	-0.9054476512817142	2.139572304248813	1.6985943017687153	2.005459665934246	1.7691315464746387	2	16	56	12	16	0	27	59	2	15	0	17	10	1	7	0	1.7393779325485212	2.0262834900617626	1.031034123216359	1.504640166759495	2.1264747446775463		1.549161574399032	1.0110111204244328	2.329249010086059	2.1184889831542986		1.9420466355716481	2.274968084335323	1.443073120117191	1.8038581235068176	
sub-03	ses-013	172	68	9	111	240	120	0.6416666666666667	2.01249901943392	1.1981979157203868	1.8660417179500361	2.048085226482814	1.7469382715654813	-0.8498873107624274	59	22	33	58	1	38	27	2	60	60	60	60	0.9083333333333333	0.29166666666666663	0.47500000000000003	0.8916666666666667	0.9701509865259742	1.7345158498937439	1.571240478862419	1.014497393081929	-0.7643648633677697	1.0459269809722969	1.8610547765932584	1.9458420092971243	1.293547039031992	24	148	38	30	5	4	44	67	2.130652474075813	1.8999856646855682	1.0843944969692765	1.9066532897949229	1.8146003936131798	-0.8155911677162917	2.164406412124633	1.9026837444305413	1.9242184144800374	1.630515491143982	0	11	59	11	12	1	21	57	1	16	0	22	19	2	8	0		1.9351735609227985	0.9701509865259742	1.53385813886469	1.858330906232199	2.0127759075164704	1.4071888060796875	0.9969837349339545	1.0459269809722969	1.9170243126153945		1.8203496594862505	2.0077586816486566	1.293547039031992	1.7987899124622357	
sub-03	ses-014	117	122	10	110	239	120	0.4062064156206416	1.3567711610349074	1.1701841657589653	1.5854335884969764	2.061832129478455	1.5223908557024877	-0.8916479637194896	55	4	6	52	5	55	54	8	60	59	60	60	0.8333333333333333	-0.015536723163841804	0.016666666666666677	0.7833333333333333	1.1002784524397429	1.4328887677192679	2.11824713706971	1.114522973390726	-0.332610315279525	1.397336374282843	1.6234204455288999	1.5321013542457864	1.8018272864818687	9	108	14	108	6	4	8	102	1.7130088891391115	2.049356786939839	1.096919780660559	2.0250849424089723	1.5284417463231992	-0.95243700627928	2.096207367579145	2.0102692723274203	2.067015550136567	1.4796751933939325	3	0	52	4	5	1	1	51	1	7	4	48	3	3	51	5	1.878213380177819		1.0553975912240845	1.4328887677192679	2.213455993652353	1.74229097366333	1.642202854156494	1.1022137969147927	1.6255060386657725	2.2944665622711176	1.3402939581871107	1.5255595535039932	2.141685686111449	1.413120053609224	1.4962434523713357	2.0350516262054557
sub-03	ses-015	155	85	14	106	240	120	0.5291666666666667	1.5659115818791183	1.25875550848438	1.7469584610882951	1.852140836034504	1.7581156721654934	-0.593385327550124	56	13	28	58	4	47	32	2	60	60	60	60	0.8166666666666667	0.1	0.35	0.85	1.0581788347448617	2.00761278812702	1.7395969397681124	1.052438077762211	-0.9494339533821583	1.5990533995628518	1.769702815197885	1.758781015872958	1.319115386009223	26	129	37	48	11	3	37	69	2.0541013988635908	2.027077415172872	1.103899930392126	1.9140545025387352	1.6181552624702478	-0.9231774847807459	1.92617135828192	1.5806955877939781	1.975135151115624	1.6417429080907855	1	9	55	4	16	0	12	58	2	17	2	30	16	2	16	0	1.836386852264404	2.2689821285671665	1.0440295980626881	1.4195317721366898	1.9029241740703604		1.5218272940317814	1.052438077762211	1.673909854888926	1.9117879474864286	1.5241969442367775	1.6891879069010436	2.0208481878042264	1.319115386009223	1.4967138439416894	
sub-03	ses-016	177	63	22	98	240	120	0.5541666666666667	1.5383918053414476	1.4003022709539406	1.9859007765754821	2.032668196071278	1.877831447270452	-0.6323659251173375	57	24	36	60	3	36	24	0	60	60	60	60	0.7666666666666666	0.2166666666666667	0.41666666666666663	0.8166666666666667	1.1705860977842122	2.0541097756226914	2.027340665658316	0.9807865967750569	-0.8835236778384792	2.1709497928619377	1.8902674629953178	2.1062196199099215		46	131	40	23	19	3	34	64	2.075105021579454	2.104815457592842	1.1529159611418072	2.1245925600528692	1.7446976748756782	-0.951899496451035	2.0894678256386205	1.6729372088114427	2.1508734192567722	1.7327778996527192	2	18	55	6	25	1	11	59	2	19	1	17	19	0	5	0	2.169909062385557	2.106158494419529	1.134247080889618	1.8979636192321792	2.1225571598052975	1.5069110298156758	1.8109395425969945	0.971869233503182	2.0780951690673746	2.081234811983609	2.3566590404510634	1.6768333670672282	2.1728447703311295		1.8530440483093316	
sub-03	ses-017	132	108	7	113	240	120	0.4916666666666667	1.694580979354001	1.215623091984697	1.865091552077212	1.8457460097213654	1.8415039340726231	-0.6301229177366683	55	11	7	59	5	49	53	1	60	60	60	60	0.8583333333333333	0.12499999999999999	0.058333333333333334	0.9249999999999999	1.0317290124353862	2.2300752679110456	2.1858392776991247	1.0828042299511593	-1.1983462554756594	1.7870349687887341	1.8260761774541845	1.9171376660028228	1.4086837869905864	16	116	29	79	5	2	19	94	2.0862559363685302	2.269910575305696	1.0702041287680075	2.28167541055306	1.712168363522787	-1.1997064465376883	2.016054187998183	1.4199755640293217	2.247556490788826	1.759429481119348	0	8	55	3	7	1	0	58	1	10	4	39	18	0	35	1		2.384735404624374	1.0317290124353862	1.8176482366755025	2.1858392776991247	1.9398110240022657		1.0680282507433816	2.772233551980463	2.2670584285035758	1.540735322990802	1.713003805390238	2.262542726056807		1.7395007779750598	1.4086837869905864
sub-03	ses-018	171	69	10	110	240	120	0.6291666666666667	1.9436971589757213	1.3258566038634183	1.8796886999425957	1.7743648945987267	1.715637375980766	-0.4485082907353084	58	22	32	59	2	38	28	1	60	60	60	60	0.8833333333333333	0.2833333333333333	0.45	0.8999999999999999	0.9945418623409339	1.9430963605450762	1.95248722703771	1.0815311872486773	-0.9485544982041423	1.645256869486758	1.8846359230263023	1.9099075829324188	1.3144291599583795	38	133	29	40	8	2	18	92	2.2642408174651942	2.116623602922468	1.0999231755608327	2.1857372424195947	1.6578035066467716	-1.0167004273616354	1.9631829788736699	1.0190925574989542	2.1846442784475055	1.6238751559329256	2	16	56	6	19	1	13	58	0	16	2	22	13	0	15	1	1.727267153984869	2.1144613044390277	0.9683731019250791	1.4861231768278718	2.1534889457921382	2.229491762008984	1.658715484242777	1.0617387635459135		2.1702399000676813	1.645256869486758	1.6769239397234812	2.2048108945450258		1.654324712868159	1.3144291599583795
sub-03	ses-019	157	83	15	105	240	120	0.5291666666666667	1.5469436666329754	1.2471358609206502	1.86762496690412	1.9484052419269753	1.7421952579599103	-0.7012693810063251	58	17	24	58	2	43	36	2	60	60	60	60	0.8416666666666667	0.15833333333333333	0.275	0.8416666666666667	1.1166086686698813	1.6855974579451862	1.7155313213273375	1.055329635944219	-0.5689887892753049	2.2249023735174234	1.7228895184631654	1.992695511559271	2.3708898979786284	22	135	36	47	11	4	31	74	1.9912253204260852	2.0553211249119023	1.1154315956776313	2.1361840970512893	1.6619201012594802	-0.939889529234271	2.0663351707245123	1.6240979377337492	1.9917377663824365	1.6376571801072306	3	8	55	9	10	1	14	57	2	14	0	29	19	1	17	1	2.0362032973525666	2.050986210510022	1.066448961650826	1.3608074556653322	2.0325471847937444	2.3750933239865333	1.4890914188513324	1.0321758870311961	2.2249023735174234	2.033492302564478		1.5729433468280491	2.209403333785136	2.0052671689912813	1.750492651424481	2.7365126269659754
sub-03	ses-020	145	95	9	111	240	120	0.5291666666666667	1.7036784477643798	1.1289806696075386	1.6330699725988767	2.090675473897202	1.522343868180515	-0.9616948042896634	58	9	19	59	2	51	41	1	60	60	60	60	0.8916666666666667	0.075	0.24166666666666664	0.9083333333333333	0.9807463127314867	1.828205316019665	1.592929247901897	1.018634023734811	-0.8474590032881782	1.2776180495182086	1.6422760413814446	1.6504433040831976	1.1621577199921092	13	132	31	64	8	1	19	92	2.5196411466735835	1.933642162012942	1.0497337044464004	1.9795334747179063	1.4652517137599719	-0.8839084575665417	2.1418041717645266	1.681645890958606	1.9574782692289312	1.432479154920516	1	6	57	3	6	0	13	59	1	15	1	36	15	0	26	1	1.1942569100344542	2.0021150648543533	0.9770005127788031	1.4803858183502878	1.9884001345012787		1.410404223317567	1.018634023734811	1.5747848060028635	1.9494290929348213	0.9804512930335534	1.514295603234204	2.036621101081994		1.4276484211992764	1.1621577199921092
sub-03	ses-021	152	88	3	117	240	120	0.6083333333333333	2.3006588116278497	1.2872067952835267	1.7329760966233032	1.8181743210026344	1.5853010227465145	-0.5309675257191078	58	9	27	58	2	51	33	2	60	60	60	60	0.9416666666666667	0.125	0.425	0.9416666666666667	1.0652618808602017	1.92982222210254	1.985793555635892	1.084231341243318	-0.8645603412423384	2.370974848431075	1.713396894570313	1.681226968779512	2.448107606589332	32	120	27	61	3	0	19	98	2.63825727347675	2.1032415404958034	1.0695975298935865	2.083384544555513	1.577877275407407	-1.033644010602217	1.8181743210026344		2.1920013184215574	1.4676754552176796	0	7	58	2	22	3	5	55	1	14	1	37	12	0	21	2		2.05525474042499	1.0652618808602017	1.4908084079739652	2.128587645229844	2.029339305944736	1.3574995614225045	1.0326799977141496	2.107884280914448	2.1364498996511765	2.6340654159477026	1.553322784539716	2.019433318913994		1.4879661972740938	2.448107606589332
sub-03	ses-022	148	92	22	97	240	119	0.43179271708683475	1.193683525939734	1.3745221293673582	1.8693744328471775	1.8817640643867444	1.7410086207792725	-0.5072419350193862	54	15	26	53	6	45	34	7	60	60	60	60	0.7151260504201681	0.06512605042016806	0.2484593837535014	0.6984593837535014	1.2849312440305096	1.878562574682139	1.7911683511542358	1.1187579663864018	-0.5936313306516294	2.0821860615389114	1.7345731900493722	1.9187801223593393	2.3135733914667957	36	112	32	60	14	8	15	82	1.4131157050366516	1.8803800987360435	1.2119249249274238	2.061566429935191	1.7668720344002367	-0.6684551738086197	2.0593826803126007	1.5709314865164958	2.136718761201327	1.6686226194825553	5	12	49	3	16	3	10	50	1	14	5	31	15	2	19	5	1.9484745388319766	1.8765964635143393	1.217222744560972	1.8864270193533372	1.9485254744466485	1.4185819023397432	1.539396953886375	1.1007685302292014	2.554307080004364	2.070676410988837	1.9877618578458212	1.5827846386573559	2.037574600995828	1.9313649545703058	1.8249950076463215	2.4664567662253916
sub-03	ses-023	146	94	16	104	240	120	0.475	1.38574936560579	1.3222734228795008	1.8084192557563834	2.003470970751441	1.7264596914048798	-0.6811975478719403	55	15	20	56	5	45	40	4	60	60	60	60	0.7833333333333333	0.11666666666666667	0.19999999999999998	0.8	1.1839456198390743	1.588042970003796	1.8607204938527424	1.1946402896811832	-0.4040973501647216	2.1352238721973267	1.6706456784463453	1.8878122717507968	2.155936069999001	28	118	29	65	10	6	18	86	1.6239635387045843	1.9162846014659487	1.1813216177911914	1.9818800623152109	1.7310290497532141	-0.7349629836747573	2.137854102901882	1.779499083834039	2.0017706533349404	1.6688364668148667	3	10	52	5	13	2	7	54	1	13	4	32	13	2	27	2	2.016896803668535	1.7399203099996092	1.1358907438489132	1.2842882900121702	2.0050526221556826	2.070195621010498	1.5926751127187109	1.162212314446764	1.6932514140056585	1.9714137706970984	2.2457169867452436	1.548458640969477	2.002908405083803	2.0575410539918693	1.8323956149608305	2.2543310860061325
sub-03	ses-027	141	99	9	111	240	120	0.5125000000000001	1.6606501839360268	1.182946363090412	1.6213206702015488	2.0405786915599458	1.5632910539038705	-0.8576323284695337	59	5	20	57	1	55	40	3	60	60	60	60	0.9083333333333333	0.008333333333333331	0.2583333333333333	0.875	1.0534969554206937	1.810090253762897	1.8049259699722797	1.0436867746959135	-0.7565932983422032	1.5598213160410523	1.609805518503219	1.6099676346313232	2.0043053769941053	20	121	25	74	8	1	12	99	2.4044242741858386	1.9292847171733172	1.05958465167175	1.9936190844729578	1.4955441788936406	-0.8697000655015672	2.071267107245511	1.795071366075426	1.9211100049347947	1.519919059839516	0	5	59	0	15	0	5	57	0	15	1	40	10	0	30	3		1.810090253762897	1.0534969554206937		1.9690162049767905		1.3126552649587466	1.0436867746959135		1.9435139927901353	1.5598213160410523	1.4846648406456253	2.0687767219971915		1.4570312721760337	2.0043053769941053
sub-03	ses-028	148	92	9	111	240	120	0.5416666666666667	1.7362693091983545	1.2783461288033022	1.743227469093855	1.888760840638227	1.486714186054396	-0.6104147118349248	53	10	25	60	7	50	35	0	60	60	60	60	0.8083333333333333	0.09166666666666666	0.3416666666666667	0.925	1.1534668255087779	1.744774539561946	1.8482235510572789	1.0734691856478678	-0.5913077140531682	1.7216620578058013	1.6788872559197265	1.8394551416002205		28	120	29	63	9	0	9	102	2.63825727347675	1.9565523234395599	1.1200980167215089	2.081271572177906	1.5876198660869107	-0.836454306718051	1.888760840638227		2.1157134637029618	1.4312142497912872	2	7	51	3	17	2	8	58	3	10	4	40	16	0	19	0	1.5337366070598364	1.9012639995930531	1.138554285055795	1.3796324661560295	1.9547139065197725	2.5885037171002487	1.6219315456994803	1.0212266155977856	1.9936478521736898	2.0339001806452863	1.517672712029885	1.5901340247383362	2.1273081393865843		1.5970526171485462	
sub-03	ses-029	148	92	5	115	240	120	0.5750000000000001	2.0284022343821433	1.284712659397692	1.759545473386332	1.9065676789395496	1.6509243893553724	-0.6218550195418575	56	11	25	56	4	49	35	4	60	60	60	60	0.8916666666666667	0.14166666666666666	0.375	0.8916666666666667	1.1503844848045692	1.7997078055143367	1.7773981093063953	1.0979322115800885	-0.6493233207097675	1.930937006231403	1.6314979588236584	1.9242234759937447	1.7158034711191483	25	123	21	71	3	2	16	99	2.1593832162064106	2.0158123067148015	1.1361151701055967	2.047251764849892	1.6744492463337295	-0.8796971366092048	2.331881677806372	1.268596680639316	2.1814693613012803	1.565179747424721	1	7	55	4	14	3	11	53	0	8	4	41	12	1	23	3	1.6685765467025249	1.9677478741561731	1.1409628109518792	1.5056376853911226	2.0772382262242672	1.9570536116448523	1.3957834150472854	1.0493026983688756		1.9895463592675495	1.930937006231403	1.5616348562980211	2.1199280280666426	1.6367798509076297	1.8221167531731024	1.7421446778563212
sub-03	ses-030	126	114	5	114	240	119	0.48298319327731093	1.7904536649650615	1.0895956595965839	1.4313137383222503	1.5477228360041075	1.3410287799180316	-0.45812717640752365	58	5	5	58	2	55	55	2	60	60	60	60	0.9246498599439776	0.04131652661064425	0.04131652661064425	0.9246498599439776	1.020569757825359	1.8361812253901775	1.962934379392769	1.0189729160583452	-0.8156114675648185	2.084294717507433	1.443449937662661	1.41678915340534	0.8440133624908128	9	117	22	92	3	2	10	104	2.093340557232794	1.8867335339922766	1.028277361566146	1.9499472691830975	1.3072926765946564	-0.8584561724261306	1.6775300313307315	1.3530120430141714	1.8146178501918981	1.295491369314775	1	3	57	2	5	0	0	58	1	10	1	45	10	1	45	1	1.7162380360299778	1.8165639576455563	1.00836505119019	1.8656071270071095	1.962934379392769			1.0189729160583452	3.059321660043196	1.8451496042048081	1.10926777497167	1.3541833450977392	1.976762072296351	1.6204014969733578	1.2923507269851153	0.0676252280082678
sub-03	ses-031	143	97	4	116	240	120	0.5625	2.0764913352185634	1.2153810077438045	1.5706806875601154	1.65597125462256	1.5660080743426932	-0.4405902468787555	59	8	17	59	1	52	43	1	60	60	60	60	0.95	0.1	0.25	0.95	1.103001176086334	1.9455426055181286	1.7279959494779444	1.0810532666610213	-0.8425414294317946	2.1951789888832707	1.6047234270897208	1.488100847667517	2.726893046079198	17	126	23	74	2	2	10	106	2.190752012128198	1.9558995069075815	1.115469781666152	1.9760985775348592	1.444672424459857	-0.8404297252414294	1.6983805503835825	1.6135619588615375	2.135645444911905	1.5122686997606922	1	6	58	2	9	1	8	58	0	9	1	43	13	1	30	0	1.635462843002756	2.0998152500189193	1.0938208025188094	1.482724672015756	1.867036929253696	2.212604911029345	1.5715748472302238	1.0615437555512226		2.004374591875818	2.1951789888832707	1.5210755088786772	1.8987694546415539	2.726893046079198	1.3101444513121012	
sub-03	ses-032	139	101	8	112	240	120	0.5125000000000001	1.700848016628634	1.1936353510931994	1.5342685957329876	1.7521571326213587	1.4097713283847892	-0.5585217815281593	55	9	20	55	5	51	40	5	60	60	60	60	0.85	0.08333333333333333	0.26666666666666666	0.85	1.0362027638724656	1.713535501666422	1.7692680821985423	1.0566723750909175	-0.6773327377939564	1.4958522642001058	1.4542108158633242	1.6194449192750935	1.7078636935995888	25	114	34	67	2	6	11	101	1.582146849008259	1.7588234487588994	1.0696905928331775	1.9298804279706663	1.3335103525078968	-0.6891328559257219	2.203596841499092	1.6016772296621145	1.8941079119091804	1.3570217994860934	4	6	51	3	12	3	8	52	1	12	4	39	19	2	21	3	1.389077384000558	1.682634171999139	1.0085263230781054	1.775338161000988	1.877184167999222	1.9307538783282514	1.6073939534975223	1.0062445960579944	2.294427743992422	1.9865590270848779	1.2962083942520266	1.2904113662566923	1.8431716753151555	2.2312683255018726	1.4170254733340846	1.3589272723313996
sub-03	ses-033	145	95	13	107	240	120	0.4958333333333333	1.4995873183871753	1.3267229655243726	1.5826931780843612	1.955964553063879	1.380975935761405	-0.6292415875395063	54	15	18	58	6	45	42	2	60	60	60	60	0.7916666666666667	0.14166666666666666	0.19166666666666665	0.8583333333333334	1.2630148148863503	1.927066575255246	1.6165738399302194	1.1408224525792843	-0.6640517603688958	1.4005194939816523	1.4752208796689388	1.7175766689062606	1.7147876374796027	22	123	35	60	7	6	11	96	1.6761916089728994	1.9927133110803732	1.2076027411159824	1.9304590190014401	1.3798297708827316	-0.7851105699643908	2.101412858557552	1.7862748633212604	1.8088071582684355	1.3319536081824745	2	11	52	4	8	1	10	57	2	12	4	33	20	1	22	1	2.2182702259870553	2.0842776669889957	1.2262742221517078	1.4947360729874344	1.7801732963643666	2.234711684000217	1.4856942747829016	1.1216314134315486	2.03920836096513	1.9182405779145968	1.0811750604899135	1.3141228075796085	1.9163383317582774	2.141995372979437	1.5368842481316995	1.2875799019797682
sub-03	ses-034	142	98	24	96	240	120	0.39166666666666666	1.073455596025924	1.2045590494674137	1.5788457761891086	1.7476804472458014	1.5275320102663688	-0.5431213977783877	57	11	15	59	3	49	45	1	60	60	60	60	0.75	-0.01666666666666669	0.04999999999999999	0.7833333333333332	1.1418194160659887	1.767439759359165	1.6374926084615304	1.0501602004870783	-0.6256203432931764	1.6277301343332526	1.5477045594428074	1.5942746251744444	2.263814117985333	28	114	32	66	19	5	18	78	1.6689576181790313	1.7778857236029613	1.06374197160956	1.8304567184333074	1.4568525920707092	-0.7141437519934013	1.8454402273646426	1.3761932827942047	1.9434492910528531	1.4315510993156413	2	9	55	2	11	6	4	53	1	13	2	36	17	1	28	0	1.4723658920085256	1.8557156382169988	1.129799544213533	1.3701983044989134	1.774595074905825	1.769013651491467	1.2604608257397203	0.9687805645243173	1.675583211007761	1.7569136385336666	1.6038035959959984	1.472156836437775	1.8703141388197106	2.263814117985333	1.4266792061755325	
sub-03	ses-035	131	109	7	113	240	120	0.48749999999999993	1.6840606695383262	1.1907212038974477	1.5861672773483062	2.04845315688157	1.536066603820723	-0.8577319529841221	56	6	11	58	4	54	49	2	60	60	60	60	0.875	0.04166666666666667	0.12499999999999999	0.9083333333333333	1.0920234155171797	1.8077921756651918	1.9780296047933548	1.0728635816359573	-0.715768760148012	1.6253491105069386	1.5981792988272885	1.592217436371829	1.035250135022217	20	111	28	81	6	1	9	104	2.299842385494973	2.0544223305932237	1.0350993792675782	2.010387438198252	1.439523271128572	-1.0193229513256454	2.0457326745172058	2.064776051067753	1.9914686056314526	1.4966568152024868	3	5	53	1	10	2	1	56	1	11	3	43	16	0	33	2	2.269041197020563	1.9972616412043607	1.0253997675075543	0.8604448479693474	2.062352801271712	1.835743401031932	1.1347976400097863	1.045617873800387	2.6021933749830453	1.9518619168867288	1.2997343556815697	1.507702350021385	2.013635863050875		1.3878933507092612	1.035250135022217
sub-03	ses-036	152	88	2	118	240	120	0.6166666666666666	2.4687400612727792	1.155332759203464	1.403643603461203	2.2654267984349303	1.231716855651685	-1.1100940392314664	59	8	26	59	1	52	34	1	60	60	60	60	0.9666666666666666	0.11666666666666667	0.4166666666666667	0.9666666666666666	0.9697617655935699	2.067173442558854	1.7243831067611108	0.9664963883499351	-1.097411676965284	1.3950330022256878	1.3761754628908476	1.4324689528795291	1.860535634132105	33	119	24	64	2	0	11	107	2.627812799109421	1.8489601504164903	0.9629823061780027	1.8707949112448847	1.2284618630423223	-0.8859778442384876	2.2654267984349303		1.7776557799801276	1.175592293337546	2	8	57	0	21	2	5	57	0	12	1	40	11	1	23	0	1.6967522714380152	2.067173442558854	0.9442533267920104		1.7647022431623205	2.013022886994293	1.55504273387603	0.929776160327326		1.8685575348736403	1.3950330022256878	1.2284608412960099	1.8741683470237676	1.860535634132105	1.221221416549676	
