subject	session	TrialNumber	image_path	condition	image_nr	category_nr	exemplar_nr	test_image_nr	things_category_nr	things_image_nr	things_exemplar_nr	subcondition	repetition	run	onset	duration	response_mapping_flip_h	response_mapping_flip_v	onset_flip	offset_flip	keypresses	response	response_txt	error	response_confidence	response_time	duration_flip	ran	order	session_trial_time	atypical	atypical_log	exclude_session	delay_days	delay_seconds	trials_since_lastrep
3	ses-001	1	images_fmri/plum/plum_03s.jpg	unseen	5739	479	3	None	1204.0	17107.0	3.0	unseen-within	1	1	3.0	2.98	False	True	2.983510971069336	5.948852062225342	[['y', 4.627839803695679]]	-2.0	unseen	False	True	1.6278398036956787	2.965341091156006	1.0	0.0	1619025600.8703	False		False			
3	ses-001	2	images_fmri/pie/pie_03s.jpg	unseen	5559	464	3	None	1169.0	16629.0	3.0	unseen-within	1	1	7.47	2.98	True	True	7.44948410987854	10.432116031646729	[['a', 8.510983943939209]]	-2.0	unseen	False	True	1.0409839439392092	2.9826319217681885	1.0	1.0	1619025605.3363	False		False			
3	ses-001	3	images_fmri/crouton/crouton_03s.jpg	unseen	2211	185	3	None	446.0	6452.0	3.0	unseen-within	1	1	11.94	2.98	False	False	11.916672945022585	14.899394989013672	[['y', 12.696704864501953]]	-2.0	unseen	False	True	0.7567048645019536	2.982722043991089	1.0	2.0	1619025609.8034	False		False			
3	ses-001	4	images_fmri/shovel/shovel_03n.jpg	unseen	6699	559	3	None	1433.0	20317.0	3.0	unseen-within	1	1	16.41	2.98	True	True	16.382861137390137	19.365560054779053	[['a', 17.252694845199585]]	-2.0	unseen	False	True	0.8426948451995848	2.982698917388916	1.0	3.0	1619025614.2696	False		False			
3	ses-001	5	images_fmri/lantern/lantern_03s.jpg	unseen	4239	354	3	None	896.0	12825.0	3.0	unseen-within	1	1	20.88	2.98	True	False	20.84897208213806	23.83203101158142	[['a', 21.705376863479614]]	-2.0	unseen	False	True	0.8253768634796153	2.98305892944336	1.0	4.0	1619025618.7357	False		False			
3	ses-001	6	images_fmri/pie/pie_03s.jpg	seen	5559	464	3	None	1169.0	16629.0	3.0	seen-within	2	1	25.35	2.98	False	False	25.331833124160767	28.29857707023621	[['x', 26.699636936187744]]	2.0	seen	False	True	1.3496369361877427	2.9667439460754395	1.0	5.0	1619025623.2186	False		False	0.0	17.88230013847351	4.0
3	ses-001	7	images_fmri/kale/kale_03s.jpg	unseen	4059	339	3	None	861.0	12308.0	3.0	unseen-within	1	1	29.82	2.98	False	True	29.79822993278504	32.78272294998169	[['y', 30.758882999420166]]	-2.0	unseen	False	True	0.9388829994201656	2.984493017196656	1.0	6.0	1619025627.685	False		False			
3	ses-001	8	images_fmri/headphones/headphones_03s.jpg	unseen	3699	309	3	None	767.0	10983.0	3.0	unseen-within	1	1	34.29	2.98	False	False	34.26574492454529	37.2491729259491	[['y', 35.55908679962158]]	-2.0	unseen	False	True	1.2690867996215829	2.9834280014038086	1.0	7.0	1619025632.1525	False		False			
3	ses-001	9	images_fmri/bubble/bubble_03s.jpg	unseen	1059	89	3	None	208.0	3131.0	3.0	unseen-between	1	1	38.76	2.98	True	False	38.73672413825989	41.714739084243774	[['a', 40.408615827560425]]	-2.0	unseen	False	True	1.6486158275604268	2.9780149459838867	1.0	8.0	1619025636.6235	False		False			
3	ses-001	10	images_fmri/tongs/tongs_03s.jpg	unseen	7803	651	3	None	1675.0	23644.0	3.0	unseen-within	1	1	43.23	2.98	False	True	43.203256130218506	46.18726897239685	[['y', 44.20171499252319]]	-2.0	unseen	False	True	0.9717149925231964	2.9840128421783447	1.0	9.0	1619025641.09	False		False			
3	ses-001	11	images_fmri/headphones/headphones_03s.jpg	seen	3699	309	3	None	767.0	10983.0	3.0	seen-within	2	1	47.7	2.98	True	False	47.68503093719482	50.66443204879761	[['x', 49.16403603553772]]	2.0	seen	False	True	1.4640360355377169	2.979401111602783	1.0	10.0	1619025645.5718	False		False	0.0	13.419300079345703	3.0
3	ses-001	12	images_fmri/pineapple/pineapple_03n.jpg	unseen	5619	469	3	None	1183.0	16831.0	3.0	unseen-within	1	1	52.17	2.98	False	True	52.14862203598023	55.13438010215759	[['y', 52.97183084487915]]	-2.0	unseen	False	True	0.8018308448791487	2.985758066177368	1.0	11.0	1619025650.0354	False		False			
3	ses-001	13	images_fmri/knot/knot_03s.jpg	unseen	4167	348	3	None	884.0	12656.0	3.0	unseen-within	1	1	56.64	2.98	False	False	56.6190390586853	59.60323715209961	[['y', 57.73363900184631]]	-2.0	unseen	False	True	1.093639001846313	2.984198093414306	1.0	12.0	1619025654.5058	False		False			
3	ses-001	14	images_fmri/toast/toast_03s.jpg	unseen	7743	646	3	None	1666.0	23515.0	3.0	unseen-between	1	1	61.11	2.98	False	False	61.08619093894959	64.0662100315094	[['y', 61.94942903518677]]	-2.0	unseen	False	True	0.8394290351867681	2.9800190925598145	1.0	13.0	1619025658.973	False		False			
3	ses-001	15	images_fmri/fern/fern_03s.jpg	unseen	2871	240	3	None	578.0	8362.0	3.0	unseen-within	1	1	65.58	2.98	False	False	65.55264711380005	68.53467512130737	[['y', 66.4059989452362]]	-2.0	unseen	False	True	0.8259989452362078	2.982028007507324	1.0	14.0	1619025663.4394	False		False			
3	ses-001	16	images_fmri/blowtorch/blowtorch_03s.jpg	unseen	759	64	3	None	149.0	2276.0	3.0	unseen-within	1	1	70.05	2.98	False	True	70.0313069820404	73.0013439655304	[['y', 71.05136895179749]]	-2.0	unseen	False	True	1.0013689517974882	2.9700369834899902	1.0	15.0	1619025667.9181	False		False			
3	ses-001	17	images_fmri/fern/fern_03s.jpg	seen	2871	240	3	None	578.0	8362.0	3.0	seen-within	2	1	74.52	2.98	True	False	74.5018789768219	77.48048901557922	[['x', 75.9462058544159]]	2.0	seen	False	True	1.4262058544158975	2.978610038757324	1.0	16.0	1619025672.3886	False		False	0.0	8.94920015335083	2.0
3	ses-001	18	images_fmri/milkshake/milkshake_03s.jpg	unseen	4791	400	3	None	1003.0	14283.0	3.0	unseen-within	1	1	78.99	2.98	True	True	78.96643495559692	81.95231914520264	[['a', 80.09072089195251]]	-2.0	unseen	False	True	1.1007208919525198	2.985884189605713	1.0	17.0	1619025676.8532	False		False			
3	ses-001	19	images_fmri/broccoli/broccoli_03s.jpg	unseen	1011	85	3	None	202.0	3050.0	3.0	unseen-between	1	1	83.46	2.98	False	True	83.43397498130798	86.41689205169678	[['a', 85.42022180557251]]	1.0	seen	True	False	1.960221805572516	2.982917070388794	1.0	18.0	1619025681.3207	False		False			
3	ses-001	20	images_fmri/blowtorch/blowtorch_03s.jpg	seen	759	64	3	None	149.0	2276.0	3.0	seen-within	2	1	87.92999999999998	2.98	True	False	87.90186214447021	90.88051795959473	[['x', 89.18544793128967]]	2.0	seen	False	True	1.2554479312896945	2.978655815124512	1.0	19.0	1619025685.7886	False		False	0.0	17.870499849319458	4.0
3	ses-001	21	images_fmri/knot/knot_03s.jpg	seen	4167	348	3	None	884.0	12656.0	3.0	seen-within	2	1	92.4	2.98	False	False	92.38321113586426	95.3504729270935	[['x', 93.45331382751465]]	2.0	seen	False	True	1.0533138275146428	2.967261791229248	1.0	20.0	1619025690.27	False		False	0.0	35.76419997215271	8.0
3	ses-001	22	images_fmri/calculator/calculator_03s.jpg	unseen	1251	105	3	None	241.0	3573.0	3.0	unseen-within	1	1	96.87	2.98	True	True	96.8507161140442	99.8352029323578	[['a', 97.98611402511597]]	-2.0	unseen	False	True	1.1161140251159622	2.984486818313598	1.0	21.0	1619025694.7375	False		False			
3	ses-001	23	images_fmri/knife/knife_03s.jpg	unseen	4155	347	3	None	880.0	12593.0	3.0	unseen-within	1	1	101.34	2.98	True	True	101.31750893592834	104.2961609363556	[['a', 102.61921381950378]]	-2.0	unseen	False	True	1.2792138195037808	2.978652000427246	1.0	22.0	1619025699.2043	False		False			
3	ses-001	24	images_fmri/needle/needle_03s.jpg	unseen	5043	421	3	None	1056.0	15031.0	3.0	unseen-within	1	1	105.81	2.98	True	True	105.78467893600464	108.7669780254364	[['a', 106.83459281921387]]	-2.0	unseen	False	True	1.024592819213865	2.9822990894317627	1.0	23.0	1619025703.6714	False		False			
3	ses-001	25	images_fmri/calculator/calculator_03s.jpg	seen	1251	105	3	None	241.0	3573.0	3.0	seen-within	2	1	110.28	2.98	True	False	110.26623010635376	113.23388695716858	[['x', 111.28684687614441]]	2.0	seen	False	True	1.006846876144408	2.96765685081482	1.0	24.0	1619025708.153	False		False	0.0	13.415500164031982	3.0
3	ses-001	26	images_fmri/spider/spider_03s.jpg	unseen	7059	589	3	None	1514.0	21407.0	3.0	unseen-within	1	1	114.75	2.98	True	True	114.73476195335388	117.71636295318604	[['a', 115.83561682701111]]	-2.0	unseen	False	True	1.0856168270111084	2.9816009998321533	1.0	25.0	1619025712.6215	False		False			
3	ses-001	27	images_fmri/ruler/ruler_03s.jpg	unseen	6399	534	3	None	1342.0	19084.0	3.0	unseen-between	1	1	119.22	2.98	True	False	119.20014810562134	122.1790931224823	[['a', 120.5090639591217]]	-2.0	unseen	False	True	1.2890639591217052	2.978945016860962	1.0	26.0	1619025717.0869	False		False			
3	ses-001	28	images_fmri/elbow/elbow_03s.jpg	unseen	2751	230	3	None	553.0	8019.0	3.0	unseen-within	1	1	123.69	2.98	True	False	123.66240310668944	126.64655995368958	[['a', 124.81506991386414]]	-2.0	unseen	False	True	1.125069913864138	2.984156847000122	1.0	27.0	1619025721.5492	False		False			
3	ses-001	29	images_fmri/flower/flower_03s.jpg	unseen	3027	253	3	None	620.0	8940.0	3.0	unseen-between	1	1	128.16	2.98	False	True	128.13018012046814	131.1164801120758	[['y', 129.0909469127655]]	-2.0	unseen	False	True	0.9309469127655065	2.986299991607666	1.0	28.0	1619025726.017	False		False			
3	ses-001	30	images_fmri/paintbrush/paintbrush_03s.jpg	unseen	5259	439	3	None	1098.0	15630.0	3.0	unseen-within	1	1	132.63	2.98	False	False	132.61586713790894	135.5829770565033	[['y', 133.52362298965454]]	-2.0	unseen	False	True	0.8936229896545456	2.9671099185943604	1.0	29.0	1619025730.5026	False		False			
3	ses-001	31	images_fmri/paintbrush/paintbrush_03s.jpg	seen	5259	439	3	None	1098.0	15630.0	3.0	seen-within	2	1	137.1	2.98	True	True	137.0840699672699	140.06199312210083	[['b', 138.29203701019287]]	2.0	seen	False	True	1.1920370101928768	2.9779231548309326	1.0	30.0	1619025734.9708	False		False	0.0	4.468199968338013	1.0
3	ses-001	32	images_fmri/crouton/crouton_03s.jpg	seen	2211	185	3	None	446.0	6452.0	3.0	seen-within	2	1	141.57	2.98	True	True	141.55054903030396	144.52948212623596	[['b', 143.0397469997406]]	2.0	seen	False	True	1.4697469997406074	2.978933095932007	1.0	31.0	1619025739.4373	False		False	0.0	129.63389992713928	29.0
3	ses-001	33	images_fmri/tongs/tongs_03s.jpg	seen	7803	651	3	None	1675.0	23644.0	3.0	seen-within	2	1	146.04	2.98	True	False	146.01801109313965	149.00112915039062	[['x', 147.25980496406555]]	2.0	seen	False	True	1.2198049640655595	2.983118057250977	1.0	32.0	1619025743.9048	False		False	0.0	102.8148000240326	23.0
3	ses-001	34	images_fmri/avocado/avocado_03s.jpg	unseen	243	21	3	None	44.0	606.0	3.0	unseen-within	1	1	150.51	2.98	True	True	150.4806261062622	153.46639013290405	[['a', 151.75266289710999]]	-2.0	unseen	False	True	1.2426628971099944	2.9857640266418457	1.0	33.0	1619025748.3674	False		False			
3	ses-001	35	images_fmri/rat/rat_03s.jpg	unseen	6147	513	3	None	1286.0	18303.0	3.0	unseen-within	1	1	154.98	2.98	False	False	154.96561908721924	157.92796301841736	[['y', 156.00476503372192]]	-2.0	unseen	False	True	1.024765033721934	2.96234393119812	1.0	34.0	1619025752.8524	False		False			
3	ses-001	36	images_fmri/scoreboard/scoreboard_03s.jpg	unseen	6531	545	3	None	1384.0	19653.0	3.0	unseen-within	1	1	159.45	2.98	True	False	159.4336290359497	162.41190814971924	[['a', 160.73071193695068]]	-2.0	unseen	False	True	1.280711936950695	2.9782791137695312	1.0	35.0	1619025757.3204	False		False			
3	ses-001	37	images_fmri/spider/spider_03s.jpg	seen	7059	589	3	None	1514.0	21407.0	3.0	seen-within	2	1	163.92	2.98	True	False	163.9007329940796	166.87800693511963	[['y', 165.7694640159607]]	1.0	seen	False	False	1.8494640159607056	2.977273941040039	1.0	36.0	1619025761.7875	False		False	0.0	49.16599988937378	11.0
3	ses-001	38	images_fmri/stiletto/stiletto_03s.jpg	unseen	7239	604	3	None	1555.0	21962.0	3.0	unseen-between	1	1	168.39	2.98	False	True	168.36260294914246	171.3457989692688	[['y', 169.28069186210632]]	-2.0	unseen	False	True	0.8906918621063369	2.9831960201263428	1.0	37.0	1619025766.2494	False		False			
3	ses-001	39	images_fmri/rat/rat_03s.jpg	seen	6147	513	3	None	1286.0	18303.0	3.0	seen-within	2	1	172.86	2.98	False	False	172.82842302322388	175.81217193603516	[['x', 174.07578492164612]]	2.0	seen	False	True	1.2157849216461043	2.98374891281128	1.0	38.0	1619025770.7152	False		False	0.0	17.862799882888794	4.0
3	ses-001	40	images_fmri/sword/sword_03s.jpg	unseen	7419	619	3	None	1603.0	22646.0	3.0	unseen-between	1	1	177.32999999999996	2.98	False	True	177.31193208694458	180.28095197677607	[['y', 178.6306848526001]]	-2.0	unseen	False	True	1.300684852600142	2.969019889831543	1.0	39.0	1619025775.1987	False		False			
3	ses-001	41	images_fmri/pineapple/pineapple_03n.jpg	seen	5619	469	3	None	1183.0	16831.0	3.0	seen-within	2	1	181.8	2.98	True	False	181.78274703025812	184.7621829509735	[['x', 183.15634298324585]]	2.0	seen	False	True	1.3563429832458382	2.979435920715332	1.0	40.0	1619025779.6695	False		False	0.0	129.63410019874573	29.0
3	ses-001	42	images_fmri/kale/kale_03s.jpg	seen	4059	339	3	None	861.0	12308.0	3.0	seen-within	2	1	186.27	2.98	True	True	186.24861311912537	189.2272491455078	[['b', 187.5204198360443]]	2.0	seen	False	True	1.2504198360443013	2.9786360263824463	1.0	41.0	1619025784.1354	False		False	0.0	156.45040011405945	35.0
3	ses-001	43	images_fmri/scoreboard/scoreboard_03s.jpg	seen	6531	545	3	None	1384.0	19653.0	3.0	seen-within	2	1	190.74	2.98	False	True	190.71589612960813	193.6979911327362	[['b', 191.88765692710876]]	2.0	seen	False	True	1.1476569271087556	2.982095003128052	1.0	42.0	1619025788.6027	False		False	0.0	31.282299995422363	7.0
3	ses-001	44	images_fmri/plum/plum_03s.jpg	seen	5739	479	3	None	1204.0	17107.0	3.0	seen-within	2	1	195.21	2.98	True	False	195.1825270652771	198.1616079807281	[['a', 196.49605989456177]]	-2.0	unseen	True	True	1.2860598945617596	2.97908091545105	1.0	43.0	1619025793.0693	False		False	0.0	192.1989998817444	43.0
3	ses-001	45	images_fmri/clarinet/clarinet_03s.jpg	unseen	1779	149	3	None	351.0	5077.0	3.0	unseen-within	1	1	199.68	2.98	True	True	199.66154313087463	202.6278939247132	[['a', 201.15912890434265]]	-2.0	unseen	False	True	1.4791289043426443	2.966350793838501	1.0	44.0	1619025797.5483	False		False			
3	ses-001	46	images_fmri/needle/needle_03s.jpg	seen	5043	421	3	None	1056.0	15031.0	3.0	seen-within	2	1	204.15	2.98	False	False	204.1275360584259	207.11029696464536	[['x', 205.3041009902954]]	2.0	seen	False	True	1.1541009902954045	2.9827609062194824	1.0	45.0	1619025802.0143	False		False	0.0	98.3429000377655	22.0
3	ses-001	47	images_fmri/milkshake/milkshake_03s.jpg	seen	4791	400	3	None	1003.0	14283.0	3.0	seen-within	2	1	208.62	2.98	False	False	208.5943729877472	211.5766830444336	[['x', 209.51800203323364]]	2.0	seen	False	True	0.898002033233638	2.9823100566864014	1.0	46.0	1619025806.4811	False		False	0.0	129.6279001235962	29.0
3	ses-001	48	images_fmri/grapefruit/grapefruit_03s.jpg	unseen	3399	284	3	None	704.0	10090.0	3.0	unseen-between	1	1	213.09	2.98	True	False	213.06082701683044	216.0434601306916	[['a', 214.87320685386658]]	-2.0	unseen	False	True	1.7832068538665735	2.982633113861084	1.0	47.0	1619025810.9476	False		False			
3	ses-001	49	images_fmri/applesauce/applesauce_03s.jpg	unseen	195	17	3	None	33.0	460.0	3.0	unseen-within	1	1	217.56	2.98	False	False	217.5274269580841	220.51034903526303	[['y', 218.80119585990906]]	-2.0	unseen	False	True	1.2411958599090551	2.982922077178955	1.0	48.0	1619025815.4142	False		False			
3	ses-001	50	images_fmri/wand/wand_03s.jpg	unseen	8319	694	3	None	1781.0	25106.0	3.0	unseen-within	1	1	222.03	2.98	False	False	222.0108289718628	224.9765911102295	[['a', 224.39616584777832]]	1.0	seen	True	False	2.366165847778319	2.965762138366699	1.0	49.0	1619025819.8976	False		False			
3	ses-001	51	images_fmri/hamburger/hamburger_03s.jpg	unseen	3579	299	3	None	741.0	10621.0	3.0	unseen-within	1	1	226.5	2.98	False	False	226.4803330898285	229.46011996269223	[['y', 227.86636996269226]]	-2.0	unseen	False	True	1.3663699626922607	2.979786872863769	1.0	50.0	1619025824.3671	False		False			
3	ses-001	52	images_fmri/thermostat/thermostat_03s.jpg	unseen	7659	639	3	None	1649.0	23284.0	3.0	unseen-within	1	1	230.97	2.98	False	True	230.94393801689148	233.93159914016724	[['y', 231.9930830001831]]	-2.0	unseen	False	True	1.0230830001831066	2.987661123275757	1.0	51.0	1619025828.8307	False		False			
3	ses-001	53	images_fmri/hamburger/hamburger_03s.jpg	seen	3579	299	3	None	741.0	10621.0	3.0	seen-within	2	1	235.44	2.98	True	True	235.41462206840515	238.39249110221863	[['y', 237.62468099594116]]	1.0	seen	False	False	2.1846809959411644	2.977869033813477	1.0	52.0	1619025833.3014	False		False	0.0	8.934299945831299	2.0
3	ses-001	54	images_fmri/boy/boy_03s.jpg	unseen	927	78	3	None	185.0	2801.0	3.0	unseen-between	1	1	239.91	2.98	False	True	239.8951361179352	242.86163997650144	[['y', 241.47409582138062]]	-2.0	unseen	False	True	1.5640958213806186	2.966503858566284	1.0	53.0	1619025837.7819	False		False			
3	ses-001	55	images_fmri/elbow/elbow_03s.jpg	seen	2751	230	3	None	553.0	8019.0	3.0	seen-within	2	1	244.38	2.98	True	True	244.3645830154419	247.3424689769745	[['b', 245.7250678539276]]	2.0	seen	False	True	1.3450678539276169	2.9778859615325928	1.0	54.0	1619025842.2514	False		False	0.0	120.70219993591309	27.0
3	ses-001	56	images_fmri/barnacle/barnacle_03s.jpg	unseen	399	34	3	None	76.0	1126.0	3.0	unseen-within	1	1	248.85	2.98	True	True	248.8295180797577	251.8088939189911	[['a', 250.23367381095886]]	-2.0	unseen	False	True	1.383673810958868	2.9793758392333984	1.0	55.0	1619025846.7163	False		False			
3	ses-001	57	images_fmri/dress/dress_03s.jpg	unseen	2595	217	3	None	519.0	7529.0	3.0	unseen-between	1	1	253.32	2.98	False	False	253.29729199409485	256.2764251232147	[['y', 254.5390248298645]]	-2.0	unseen	False	True	1.2190248298645088	2.979133129119873	1.0	56.0	1619025851.1841	False		False			
3	ses-001	58	images_fmri/hedge/hedge_03s.jpg	unseen	3711	310	3	None	774.0	11073.0	3.0	unseen-between	1	1	257.79	2.98	False	True	257.7624759674072	260.7425479888916	[['y', 259.2938950061798]]	-2.0	unseen	False	True	1.503895006179789	2.980072021484375	1.0	57.0	1619025855.6492	False		False			
3	ses-001	59	images_fmri/gel/gel_03s.jpg	unseen	3231	270	3	None	670.0	9599.0	3.0	unseen-between	1	1	262.26	2.98	False	True	262.2456591129303	265.2144949436188	[['y', 263.2986810207367]]	-2.0	unseen	False	True	1.0386810207367034	2.968835830688477	1.0	58.0	1619025860.1324	False		False			
3	ses-001	60	images_fmri/lantern/lantern_03s.jpg	seen	4239	354	3	None	896.0	12825.0	3.0	seen-within	2	1	266.73	2.98	True	True	266.70942401885986	269.6919000148773	[['y', 268.3179039955139]]	1.0	seen	False	False	1.5879039955138978	2.982475996017456	1.0	59.0	1619025864.5962	False		False	0.0	245.8605000972748	55.0
3	ses-001	1	images_fmri/grate/grate_03s.jpg	unseen	3423	286	3	None	708.0	10156.0	3.0	unseen-within	1	2	3.0	2.98	False	False	2.9881279468536377	5.952246904373169	[['y', 4.374565124511719]]	-2.0	unseen	False	True	1.3745651245117188	2.9641189575195312	1.0	0.0	1619025971.2644	False		False			
3	ses-001	2	images_fmri/milk/milk_03s.jpg	unseen	4779	399	3	None	1002.0	14262.0	3.0	unseen-within	1	2	7.47	2.98	True	False	7.451164960861206	10.435799837112429	[['a', 8.376396179199219]]	-2.0	unseen	False	True	0.906396179199219	2.9846348762512207	1.0	1.0	1619025975.7274	False		False			
3	ses-001	3	images_fmri/wallet/wallet_03s.jpg	unseen	8271	690	3	None	1777.0	25049.0	3.0	unseen-within	1	2	11.94	2.98	True	False	11.92005181312561	14.90298581123352	[['a', 12.984899997711182]]	-2.0	unseen	False	True	1.044899997711182	2.98293399810791	1.0	2.0	1619025980.1963	False		False			
3	ses-001	4	images_fmri/boxer_shorts/boxer_shorts_03s.jpg	unseen	903	76	3	None	183.0	2773.0	3.0	unseen-between	1	2	16.41	2.98	False	False	16.386866807937622	19.367045879364014	[['y', 17.174309968948364]]	-2.0	unseen	False	True	0.7643099689483641	2.980179071426392	1.0	3.0	1619025984.6631	False		False			
3	ses-001	5	images_fmri/bullet/bullet_03s.jpg	unseen	1107	93	3	None	217.0	3258.0	3.0	unseen-between	1	2	20.88	2.98	False	False	20.85383987426757	23.83804178237915	[['y', 21.881564140319824]]	-2.0	unseen	False	True	1.0015641403198252	2.9842019081115723	1.0	4.0	1619025989.1301	False		False			
3	ses-001	6	images_fmri/steak/steak_03s.jpg	unseen	7203	601	3	None	1545.0	21826.0	3.0	unseen-within	1	2	25.35	2.98	True	False	25.335129976272583	28.302798986434937	[['a', 26.773455142974854]]	-2.0	unseen	False	True	1.423455142974852	2.967669010162353	1.0	5.0	1619025993.6114	False		False			
3	ses-001	7	images_fmri/cinnamon/cinnamon_03s.jpg	unseen	1767	148	3	None	349.0	5049.0	3.0	unseen-within	1	2	29.82	2.98	True	True	29.802533864974976	32.784833908081055	[['a', 31.03011202812195]]	-2.0	unseen	False	True	1.210112028121948	2.982300043106079	1.0	6.0	1619025998.0788	False		False			
3	ses-001	8	images_fmri/guacamole/guacamole_03s.jpg	unseen	3495	292	3	None	720.0	10313.0	3.0	unseen-between	1	2	34.29	2.98	True	False	34.26831579208374	37.2539119720459	[['a', 35.31011605262756]]	-2.0	unseen	False	True	1.0201160526275643	2.985596179962158	1.0	7.0	1619026002.5446	False		False			
3	ses-001	9	images_fmri/key/key_03s.jpg	unseen	4119	344	3	None	870.0	12443.0	3.0	unseen-within	1	2	38.76	2.98	False	False	38.73712778091431	41.72049283981323	[['y', 39.622321128845215]]	-2.0	unseen	False	True	0.8623211288452168	2.983365058898926	1.0	8.0	1619026007.0134	False		False			
3	ses-001	10	images_fmri/brownie/brownie_03s.jpg	unseen	1035	87	3	None	205.0	3088.0	3.0	unseen-within	1	2	43.23	2.98	False	False	43.20350790023804	46.18567085266113	[['y', 44.03376507759094]]	-2.0	unseen	False	True	0.8037650775909455	2.982162952423096	1.0	9.0	1619026011.4798	False		False			
3	ses-001	11	images_fmri/egg_roll/egg_roll_03n.jpg	unseen	2715	227	3	None	548.0	7952.0	3.0	unseen-within	1	2	47.7	2.98	True	False	47.68462681770325	50.65072894096375	[['a', 48.877711057662964]]	-2.0	unseen	False	True	1.177711057662961	2.966102123260498	1.0	10.0	1619026015.9609	False		False			
3	ses-001	12	images_fmri/koala/koala_03s.jpg	unseen	4179	349	3	None	885.0	12668.0	3.0	unseen-within	1	2	52.17	2.98	True	True	52.15250086784363	55.13144278526306	[['a', 53.82236194610596]]	-2.0	unseen	False	True	1.652361946105955	2.9789419174194336	1.0	11.0	1619026020.4288	False		False			
3	ses-001	13	images_fmri/hotdog/hotdog_03s.jpg	unseen	3843	321	3	None	806.0	11527.0	3.0	unseen-between	1	2	56.64	2.98	True	True	56.6188268661499	59.60122585296631	[['a', 57.52518010139465]]	-2.0	unseen	False	True	0.8851801013946528	2.9823989868164062	1.0	12.0	1619026024.8951	False		False			
3	ses-001	14	images_fmri/blackberry/blackberry_03s.jpg	unseen	687	58	3	None	136.0	2078.0	3.0	unseen-between	1	2	61.11	2.98	True	False	61.08584690093994	64.06449484825134	[['a', 62.8769211769104]]	-2.0	unseen	False	True	1.766921176910401	2.9786479473114014	1.0	13.0	1619026029.3621	False		False			
3	ses-001	15	images_fmri/lip_balm/lip_balm_03s.jpg	unseen	4443	371	3	None	935.0	13359.0	3.0	unseen-between	1	2	65.58	2.98	False	False	65.56721496582031	68.53172087669373	[['y', 66.74872899055481]]	-2.0	unseen	False	True	1.1687289905548113	2.964505910873413	1.0	14.0	1619026033.8435	False		False			
3	ses-001	16	images_fmri/wand/wand_03s.jpg	seen	8319	694	3	None	1781.0	25106.0	3.0	seen-within	2	2	70.05	2.98	False	True	70.03379988670349	73.017098903656	[['b', 71.23367810249329]]	2.0	seen	False	True	1.183678102493289	2.983299016952514	1.0	15.0	1619026038.3101	False		False	0.0	218.41250014305115	26.0
3	ses-001	17	images_fmri/toilet_paper/toilet_paper_03s.jpg	unseen	7779	649	3	None	1672.0	23596.0	3.0	unseen-between	1	2	74.52	2.98	True	True	74.50140380859375	77.48278498649597	[['a', 75.64778304100037]]	-2.0	unseen	False	True	1.1277830410003702	2.9813811779022217	1.0	16.0	1619026042.7777	False		False			
3	ses-001	18	images_fmri/thermostat/thermostat_03s.jpg	seen	7659	639	3	None	1649.0	23284.0	3.0	seen-within	2	2	78.99	2.98	True	False	78.96563982963562	81.94750785827637	[['x', 80.24895000457764]]	2.0	seen	False	True	1.2589500045776418	2.981868028640747	1.0	17.0	1619026047.2419	False		False	0.0	218.4112000465393	26.0
3	ses-001	19	images_fmri/curtain/curtain_03s.jpg	unseen	2319	194	3	None	466.0	6757.0	3.0	unseen-between	1	2	83.46	2.98	True	False	83.43387079238892	86.41453194618225	[['a', 84.71806216239929]]	-2.0	unseen	False	True	1.2580621623992982	2.980661153793335	1.0	18.0	1619026051.7101	False		False			
3	ses-001	20	images_fmri/barnacle/barnacle_03s.jpg	seen	399	34	3	None	76.0	1126.0	3.0	seen-within	2	2	87.92999999999998	2.98	True	False	87.9176139831543	90.88543391227722	[['x', 89.05265712738037]]	2.0	seen	False	True	1.1226571273803927	2.967819929122925	1.0	19.0	1619026056.1939	False		False	0.0	209.47760009765625	24.0
3	ses-001	21	images_fmri/key/key_03s.jpg	seen	4119	344	3	None	870.0	12443.0	3.0	seen-within	2	2	92.4	2.98	True	False	92.38589477539062	95.36380577087402	[['x', 93.72174096107483], ['x', 94.4111750125885]]	2.0	seen	False	True	1.3217409610748234	2.9779109954833984	1.0	20.0	1619026060.6622	False		False	0.0	53.64879989624024	12.0
3	ses-001	22	images_fmri/oar/oar_03s.jpg	unseen	5103	426	3	None	1069.0	15197.0	3.0	unseen-within	1	2	96.87	2.98	False	True	96.85225081443788	99.83383083343506	[['y', 98.10990595817566]]	-2.0	unseen	False	True	1.2399059581756546	2.9815800189971924	1.0	21.0	1619026065.1285	False		False			
3	ses-001	23	images_fmri/girl/girl_03s.jpg	unseen	3255	272	3	None	677.0	9697.0	3.0	unseen-within	1	2	101.34	2.98	False	True	101.31966090202332	104.3022599220276	[['y', 102.51174402236938]]	-2.0	unseen	False	True	1.1717440223693814	2.9825990200042725	1.0	22.0	1619026069.5959	False		False			
3	ses-001	24	images_fmri/wallet/wallet_03s.jpg	seen	8271	690	3	None	1777.0	25049.0	3.0	seen-within	2	2	105.81	2.98	True	False	105.78270888328552	108.7673327922821	[['x', 106.77564907073975]]	2.0	seen	False	True	0.9656490707397438	2.984623908996582	1.0	23.0	1619026074.059	False		False	0.0	93.86269998550416	21.0
3	ses-001	25	images_fmri/battery/battery_03n.jpg	unseen	447	38	3	None	98.0	1471.0	3.0	unseen-within	1	2	110.28	2.98	False	False	110.2667829990387	113.23148083686829	[['y', 111.20226812362671]]	-2.0	unseen	False	True	0.9222681236267078	2.96469783782959	1.0	24.0	1619026078.5431	False		False			
3	ses-001	26	images_fmri/brownie/brownie_03s.jpg	seen	1035	87	3	None	205.0	3088.0	3.0	seen-within	2	2	114.75	2.98	True	False	114.73323798179626	117.71477794647215	[['x', 115.87148714065552]]	2.0	seen	False	True	1.1214871406555176	2.981539964675904	1.0	25.0	1619026083.0095	False		False	0.0	71.52970004081726	16.0
3	ses-001	27	images_fmri/corn/corn_03s.jpg	unseen	2055	172	3	None	413.0	5929.0	3.0	unseen-between	1	2	119.22	2.98	False	True	119.20141196250916	122.1806139945984	[['y', 120.49062395095825]]	-2.0	unseen	False	True	1.270623950958253	2.9792020320892334	1.0	26.0	1619026087.4777	False		False			
3	ses-001	28	images_fmri/steak/steak_03s.jpg	seen	7203	601	3	None	1545.0	21826.0	3.0	seen-within	2	2	123.69	2.98	False	True	123.66462397575378	126.64910078048706	[['b', 124.87635707855225]]	2.0	seen	False	True	1.1863570785522484	2.9844768047332764	1.0	27.0	1619026091.9409	False		False	0.0	98.32950019836426	22.0
3	ses-001	29	images_fmri/ferris_wheel/ferris_wheel_03s.jpg	unseen	2895	242	3	None	580.0	8387.0	3.0	unseen-between	1	2	128.16	2.98	False	False	128.13421392440796	131.1194519996643	[['y', 129.15229201316833]]	-2.0	unseen	False	True	0.9922920131683384	2.985238075256348	1.0	28.0	1619026096.4105	False		False			
3	ses-001	30	images_fmri/battery/battery_03n.jpg	seen	447	38	3	None	98.0	1471.0	3.0	seen-within	2	2	132.63	2.98	True	True	132.61367177963257	135.58471584320068	[['b', 133.84344696998596]]	2.0	seen	False	True	1.2134469699859665	2.9710440635681152	1.0	29.0	1619026100.8899	False		False	0.0	22.346799850463867	5.0
3	ses-001	31	images_fmri/pencil_sharpener/pencil_sharpener_03s.jpg	unseen	5475	457	3	None	1144.0	16271.0	3.0	unseen-within	1	2	137.1	2.98	False	True	137.08443093299866	140.06645894050598	[['y', 138.01319909095764]]	-2.0	unseen	False	True	0.9131990909576472	2.982028007507324	1.0	30.0	1619026105.3607	False		False			
3	ses-001	32	images_fmri/tweezers/tweezers_03s.jpg	unseen	8079	674	3	None	1740.0	24524.0	3.0	unseen-between	1	2	141.57	2.98	False	True	141.54576683044434	144.52889895439148	[['y', 143.17345714569092]]	-2.0	unseen	False	True	1.6034571456909248	2.983132123947144	1.0	31.0	1619026109.822	False		False			
3	ses-001	33	images_fmri/tree/tree_03s.jpg	unseen	7983	666	3	None	1709.0	24104.0	3.0	unseen-within	1	2	146.04	2.98	False	True	146.01563096046448	148.99606490135193	[['y', 147.73116207122803]]	-2.0	unseen	False	True	1.6911620712280353	2.980433940887451	1.0	32.0	1619026114.2919	False		False			
3	ses-001	34	images_fmri/llama/llama_03s.jpg	unseen	4467	373	3	None	939.0	13407.0	3.0	unseen-within	1	2	150.51	2.98	True	True	150.482745885849	153.46755385398865	[['a', 151.65821194648743]]	-2.0	unseen	False	True	1.148211946487436	2.9848079681396484	1.0	33.0	1619026118.759	False		False			
3	ses-001	35	images_fmri/warthog/warthog_03s.jpg	unseen	8331	695	3	None	1782.0	25118.0	3.0	unseen-between	1	2	154.98	2.98	False	False	154.96594381332395	157.9321939945221	[['y', 156.05045700073242]]	-2.0	unseen	False	True	1.070457000732432	2.96625018119812	1.0	34.0	1619026123.2422	False		False			
3	ses-001	36	images_fmri/clarinet/clarinet_03s.jpg	seen	1779	149	3	None	351.0	5077.0	3.0	seen-within	2	2	159.45	2.98	False	False	159.43398094177246	162.41581797599792	[['x', 160.60318207740784]]	2.0	seen	False	True	1.1531820774078485	2.981837034225464	1.0	35.0	1619026127.7103	False		False	0.0	330.1619999408722	51.0
3	ses-001	37	images_fmri/cranberry/cranberry_03n.jpg	unseen	2115	177	3	None	431.0	6220.0	3.0	unseen-between	1	2	163.92	2.98	True	True	163.89659881591797	166.87847995758057	[['a', 165.59334015846252]]	-2.0	unseen	False	True	1.673340158462537	2.9818811416625977	1.0	36.0	1619026132.1729	False		False			
3	ses-001	38	images_fmri/egg_roll/egg_roll_03n.jpg	seen	2715	227	3	None	548.0	7952.0	3.0	seen-within	2	2	168.39	2.98	True	False	168.36673998832703	171.34771990776062	[['x', 169.33536505699158]]	2.0	seen	False	True	0.9453650569915908	2.9809799194335938	1.0	37.0	1619026136.643	False		False	0.0	120.68209981918336	27.0
3	ses-001	39	images_fmri/oar/oar_03s.jpg	seen	5103	426	3	None	1069.0	15197.0	3.0	seen-within	2	2	172.86	2.98	False	True	172.84829783439636	175.81468391418457	[['a', 174.29572916030884]]	1.0	seen	False	False	1.4357291603088242	2.966386079788208	1.0	38.0	1619026141.1246	False		False	0.0	75.99609994888306	17.0
3	ses-001	40	images_fmri/shovel/shovel_03n.jpg	seen	6699	559	3	None	1433.0	20317.0	3.0	seen-within	2	2	177.32999999999996	2.98	True	False	177.31423497200012	180.2956938743592	[['y', 179.07182097434998]]	1.0	seen	False	False	1.74182097435002	2.981458902359009	1.0	39.0	1619026145.5905	False		False	0.0	531.3209002017975	96.0
3	ses-001	41	images_fmri/knife/knife_03s.jpg	seen	4155	347	3	None	880.0	12593.0	3.0	seen-within	2	2	181.8	2.98	False	True	181.7818458080292	184.7626929283142	[['b', 183.03286004066467]]	2.0	seen	False	True	1.2328600406646617	2.980847120285034	1.0	40.0	1619026150.0581	False		False	0.0	450.85380005836487	78.0
3	ses-001	42	images_fmri/hairbrush/hairbrush_03s.jpg	unseen	3555	297	3	None	735.0	10538.0	3.0	unseen-between	1	2	186.27	2.98	True	True	186.24772477149963	189.2337348461151	[['a', 187.26474714279175]]	-2.0	unseen	False	True	0.9947471427917378	2.9860100746154785	1.0	41.0	1619026154.524	False		False			
3	ses-001	43	images_fmri/cinnamon/cinnamon_03s.jpg	seen	1767	148	3	None	349.0	5049.0	3.0	seen-within	2	2	190.74	2.98	False	True	190.7162728309632	193.70001578331	[['b', 191.8121030330658]]	2.0	seen	False	True	1.0721030330657868	2.9837429523468018	1.0	42.0	1619026158.9925	False		False	0.0	160.91370010375977	36.0
3	ses-001	44	images_fmri/ring/ring_03s.jpg	unseen	6303	526	3	None	1314.0	18699.0	3.0	unseen-between	1	2	195.21	2.98	True	True	195.1986598968506	198.16470289230347	[['a', 196.70209407806396]]	-2.0	unseen	False	True	1.4920940780639569	2.966042995452881	1.0	43.0	1619026163.4749	False		False			
3	ses-001	45	images_fmri/tumbleweed/tumbleweed_03s.jpg	unseen	8043	671	3	None	1728.0	24355.0	3.0	unseen-within	1	2	199.68	2.98	False	True	199.6647160053253	202.6479148864746	[['y', 200.6415650844574]]	-2.0	unseen	False	True	0.9615650844573906	2.983198881149292	1.0	44.0	1619026167.941	False		False			
3	ses-001	46	images_fmri/porcupine/porcupine_03s.jpg	unseen	5847	488	3	None	1227.0	17455.0	3.0	unseen-within	1	2	204.15	2.98	True	True	204.1279418468476	207.1117568016052	[['a', 205.30092000961304]]	-2.0	unseen	False	True	1.1509200096130314	2.9838149547576904	1.0	45.0	1619026172.4042	False		False			
3	ses-001	47	images_fmri/tree/tree_03s.jpg	seen	7983	666	3	None	1709.0	24104.0	3.0	seen-within	2	2	208.62	2.98	True	True	208.59397387504572	211.576287984848	[['x', 210.59667801856995]]	-1.0	unseen	True	False	1.9766780185699413	2.982314109802246	1.0	46.0	1619026176.8702	False		False	0.0	62.57829999923706	14.0
3	ses-001	48	images_fmri/sandpaper/sandpaper_03s.jpg	unseen	6435	537	3	None	1357.0	19299.0	3.0	unseen-between	1	2	213.09	2.98	False	False	213.06141877174372	216.04402685165405	[['y', 214.7218041419983]]	-2.0	unseen	False	True	1.6318041419982876	2.9826080799102783	1.0	47.0	1619026181.3377	False		False			
3	ses-001	49	images_fmri/girl/girl_03s.jpg	seen	3255	272	3	None	677.0	9697.0	3.0	seen-within	2	2	217.56	2.98	True	False	217.54440093040463	220.50967693328852	[['x', 218.7567241191864]]	2.0	seen	False	True	1.196724119186399	2.965276002883911	1.0	48.0	1619026185.8207	False		False	0.0	116.2247998714447	26.0
3	ses-001	50	images_fmri/sewing_kit/sewing_kit_03s.jpg	unseen	6603	551	3	None	1407.0	19970.0	3.0	unseen-within	1	2	222.03	2.98	True	True	222.01030087471008	224.99255394935608	[['a', 223.43551397323608]]	-2.0	unseen	False	True	1.4055139732360828	2.982253074645996	1.0	49.0	1619026190.2866	False		False			
3	ses-001	51	images_fmri/gearshift/gearshift_03n.jpg	unseen	3219	269	3	None	669.0	9587.0	3.0	unseen-within	1	2	226.5	2.98	False	True	226.47797894477844	229.4591989517212	[['y', 228.10666298866272]]	-2.0	unseen	False	True	1.6066629886627195	2.981220006942749	1.0	50.0	1619026194.7543	False		False			
3	ses-001	52	images_fmri/bowl/bowl_03s.jpg	unseen	891	75	3	None	178.0	2704.0	3.0	unseen-between	1	2	230.97	2.98	True	True	230.9433488845825	233.9254729747772	[['a', 232.70137000083923]]	-2.0	unseen	False	True	1.7313700008392343	2.982124090194702	1.0	51.0	1619026199.2196	False		False			
3	ses-001	53	images_fmri/kettle/kettle_03n.jpg	unseen	4107	343	3	None	869.0	12428.0	3.0	unseen-within	1	2	235.44	2.98	False	False	235.40991497039795	238.39381790161133	[['y', 236.57521414756775]]	-2.0	unseen	False	True	1.1352141475677513	2.983902931213379	1.0	52.0	1619026203.6862	False		False			
3	ses-001	54	images_fmri/avocado/avocado_03s.jpg	seen	243	21	3	None	44.0	606.0	3.0	seen-within	2	2	239.91	2.98	False	False	239.89721179008484	242.86251592636108	[['a', 241.82721495628357]]	1.0	seen	False	False	1.9172149562835727	2.965304136276245	1.0	53.0	1619026208.1735	False		False	0.0	459.8061001300812	80.0
3	ses-001	55	images_fmri/milk/milk_03s.jpg	seen	4779	399	3	None	1002.0	14262.0	3.0	seen-within	2	2	244.38	2.98	False	True	244.36343693733207	247.3485398292541	[['b', 245.5642991065979]]	2.0	seen	False	True	1.184299106597905	2.985102891921997	1.0	54.0	1619026212.6397	False		False	0.0	236.9122998714447	53.0
3	ses-001	56	images_fmri/grate/grate_03s.jpg	seen	3423	286	3	None	708.0	10156.0	3.0	seen-within	2	2	248.85	2.98	False	True	248.82974290847773	251.80967378616333	[['x', 250.78440809249878]]	-1.0	unseen	True	False	1.934408092498785	2.979930877685547	1.0	55.0	1619026217.106	False		False	0.0	245.8415999412537	55.0
3	ses-001	57	images_fmri/racket/racket_03s.jpg	unseen	6075	507	3	None	1271.0	18105.0	3.0	unseen-between	1	2	253.32	2.98	True	False	253.29417777061465	256.2775318622589	[['a', 254.49747514724731]]	-2.0	unseen	False	True	1.1774751472473213	2.983354091644287	1.0	56.0	1619026221.5705	False		False			
3	ses-001	58	images_fmri/scallion/scallion_03s.jpg	unseen	6471	540	3	None	1373.0	19501.0	3.0	unseen-between	1	2	257.79	2.98	False	True	257.7600748538971	260.74138498306274	[['y', 259.48835706710815]]	-2.0	unseen	False	True	1.6983570671081338	2.9813101291656494	1.0	57.0	1619026226.0364	False		False			
3	ses-001	59	images_fmri/llama/llama_03s.jpg	seen	4467	373	3	None	939.0	13407.0	3.0	seen-within	2	2	262.26	2.98	True	True	262.243155002594	265.20958280563354	[['b', 263.96818017959595]]	2.0	seen	False	True	1.7081801795959564	2.966427803039551	1.0	58.0	1619026230.5194	False		False	0.0	111.7603998184204	25.0
3	ses-001	60	images_fmri/wallpaper/wallpaper_03s.jpg	unseen	8283	691	3	None	1778.0	25063.0	3.0	unseen-between	1	2	266.73	2.98	False	False	266.70980978012085	269.6935729980469	[['y', 267.58614706993103]]	-2.0	unseen	False	True	0.8561470699310121	2.9837632179260254	1.0	59.0	1619026234.9861	False		False			
3	ses-001	1	images_fmri/pan/pan_03s.jpg	unseen	5271	440	3	None	1104.0	15707.0	3.0	unseen-within	1	3	3.0	2.98	False	False	2.987370014190674	5.96660590171814	[['x', 4.624524831771851]]	2.0	seen	True	True	1.6245248317718506	2.979235887527466	1.0	0.0	1619026355.1196	False		False			
3	ses-001	2	images_fmri/earwig/earwig_03s.jpg	unseen	2679	224	3	None	542.0	7866.0	3.0	unseen-within	1	3	7.47	2.98	True	True	7.455189943313599	10.439059019088743	[['a', 8.618584871292114]]	-2.0	unseen	False	True	1.1485848712921145	2.9838690757751465	1.0	1.0	1619026359.5874	False		False			
3	ses-001	3	images_fmri/mascara/mascara_03s.jpg	unseen	4659	389	3	None	979.0	13949.0	3.0	unseen-within	1	3	11.94	2.98	False	True	11.922101974487305	14.899441003799438	[['y', 13.343400001525879]]	-2.0	unseen	False	True	1.4034000015258794	2.977339029312134	1.0	2.0	1619026364.0543	False		False			
3	ses-001	4	images_fmri/carrot/carrot_03s.jpg	unseen	1443	121	3	None	278.0	4077.0	3.0	unseen-between	1	3	16.41	2.98	True	False	16.40329384803772	19.36641788482666	[['a', 17.805203914642334]]	-2.0	unseen	False	True	1.3952039146423338	2.9631240367889404	1.0	3.0	1619026368.5355	False		False			
3	ses-001	5	images_fmri/crayfish/crayfish_03s.jpg	unseen	2151	180	3	None	435.0	6285.0	3.0	unseen-within	1	3	20.88	2.98	True	False	20.86728882789612	23.832501888275143	[['a', 22.335484981536865]]	-2.0	unseen	False	True	1.4554849815368662	2.9652130603790283	1.0	4.0	1619026372.9995	False		False			
3	ses-001	6	images_fmri/viewfinder/viewfinder_03s.jpg	unseen	8211	685	3	None	1764.0	24862.0	3.0	unseen-between	1	3	25.35	2.98	False	True	25.33866095542908	28.320142030715942	[['y', 26.23277497291565]]	-2.0	unseen	False	True	0.882774972915648	2.981481075286865	1.0	5.0	1619026377.4709	False		False			
3	ses-001	7	images_fmri/waffle_iron/waffle_iron_03s.jpg	unseen	8235	687	3	None	1772.0	24981.0	3.0	unseen-between	1	3	29.82	2.98	True	False	29.80459785461425	32.78301787376404	[['a', 31.05051302909851]]	-2.0	unseen	False	True	1.2305130290985105	2.9784200191497803	1.0	6.0	1619026381.9368	False		False			
3	ses-001	8	images_fmri/earwig/earwig_03s.jpg	seen	2679	224	3	None	542.0	7866.0	3.0	seen-within	2	3	34.29	2.98	True	True	34.27063703536987	37.24957299232483	[['y', 36.292649030685425]]	1.0	seen	False	False	2.0026490306854257	2.978935956954956	1.0	7.0	1619026386.4028	False		False	0.0	26.81540012359619	6.0
3	ses-001	9	images_fmri/pencil_sharpener/pencil_sharpener_03s.jpg	seen	5475	457	3	None	1144.0	16271.0	3.0	seen-within	2	3	38.76	2.98	False	True	38.74954295158386	41.716508865356445	[['b', 39.877951860427856]]	2.0	seen	False	True	1.1179518604278584	2.966965913772583	1.0	8.0	1619026390.8818	False		False	0.0	285.5211000442505	38.0
3	ses-001	10	images_fmri/strainer/strainer_03s.jpg	unseen	7275	607	3	None	1567.0	22123.0	3.0	unseen-within	1	3	43.23	2.98	False	False	43.21889901161194	46.19878482818604	[['y', 44.63198781013489]]	-2.0	unseen	False	True	1.4019878101348908	2.9798858165740967	1.0	9.0	1619026395.3511	False		False			
3	ses-001	11	images_fmri/ping-pong_table/ping-pong_table_03s.jpg	unseen	5631	470	3	None	1185.0	16855.0	3.0	unseen-within	1	3	47.7	2.98	True	True	47.68734288215637	50.666244983673096	[['y', 49.14710092544556]]	1.0	seen	True	False	1.4471009254455538	2.978902101516724	1.0	10.0	1619026399.8196	False		False			
3	ses-001	12	images_fmri/gravestone/gravestone_03s.jpg	unseen	3447	288	3	None	711.0	10197.0	3.0	unseen-between	1	3	52.17	2.98	False	False	52.15261602401733	55.13471484184265	[['y', 53.20204401016235]]	-2.0	unseen	False	True	1.0320440101623518	2.9820988178253174	1.0	11.0	1619026404.2848	False		False			
3	ses-001	13	images_fmri/crown/crown_03s.jpg	unseen	2235	187	3	None	449.0	6497.0	3.0	unseen-within	1	3	56.64	2.98	True	True	56.61898493766785	59.60353994369507	[['a', 57.61421298980713]]	-2.0	unseen	False	True	0.9742129898071284	2.9845550060272217	1.0	12.0	1619026408.7512	False		False			
3	ses-001	14	images_fmri/tumbleweed/tumbleweed_03s.jpg	seen	8043	671	3	None	1728.0	24355.0	3.0	seen-within	2	3	61.11	2.98	False	False	61.0990948677063	64.06914687156677	[['x', 62.09820795059204]]	2.0	seen	False	True	0.9882079505920416	2.9700520038604736	1.0	13.0	1619026413.2313	False		False	0.0	245.2903001308441	29.0
3	ses-001	15	images_fmri/koala/koala_03s.jpg	seen	4179	349	3	None	885.0	12668.0	3.0	seen-within	2	3	65.58	2.98	False	False	65.56775784492493	68.55235290527344	[['x', 66.54603481292725]]	2.0	seen	False	True	0.9660348129272478	2.9845950603485107	1.0	14.0	1619026417.7	False		False	0.0	397.27119994163513	63.0
3	ses-001	16	images_fmri/crown/crown_03s.jpg	seen	2235	187	3	None	449.0	6497.0	3.0	seen-within	2	3	70.05	2.98	False	False	70.03236794471741	73.01885604858398	[['x', 70.91392803192139]]	2.0	seen	False	True	0.8639280319213896	2.986488103866577	1.0	15.0	1619026422.1646	False		False	0.0	13.413399934768677	3.0
3	ses-001	17	images_fmri/lamp/lamp_03s.jpg	unseen	4215	352	3	None	892.0	12771.0	3.0	unseen-between	1	3	74.52	2.98	False	True	74.49895191192627	77.48582196235657	[['y', 75.72534489631653]]	-2.0	unseen	False	True	1.2053448963165323	2.986870050430298	1.0	16.0	1619026426.6312	False		False			
3	ses-001	18	images_fmri/cork/cork_03s.jpg	unseen	2031	170	3	None	410.0	5888.0	3.0	unseen-between	1	3	78.99	2.98	True	False	78.96833205223083	81.94782900810242	[['a', 80.27573680877686]]	-2.0	unseen	False	True	1.2857368087768606	2.979496955871582	1.0	17.0	1619026431.1005	False		False			
3	ses-001	19	images_fmri/kimono/kimono_03s.jpg	unseen	4131	345	3	None	874.0	12509.0	3.0	unseen-between	1	3	83.46	2.98	True	False	83.44853782653809	86.4142210483551	[['a', 84.3658230304718], ['a', 84.99688291549683]]	-2.0	unseen	False	True	0.905823030471808	2.9656832218170166	1.0	18.0	1619026435.5807	False		False			
3	ses-001	20	images_fmri/odometer/odometer_03s.jpg	unseen	5139	429	3	None	1072.0	15238.0	3.0	unseen-between	1	3	87.92999999999998	2.98	False	True	87.91490602493286	90.89891791343688	[['y', 88.84821581840515]]	-2.0	unseen	False	True	0.918215818405173	2.9840118885040283	1.0	19.0	1619026440.0471	False		False			
3	ses-001	21	images_fmri/bear/bear_03s.jpg	unseen	495	42	3	None	106.0	1593.0	3.0	unseen-between	1	3	92.4	2.98	False	True	92.38177800178528	95.36418390274048	[['y', 93.96975588798523]]	-2.0	unseen	False	True	1.5697558879852238	2.9824059009552	1.0	20.0	1619026444.514	False		False			
3	ses-001	22	images_fmri/gearshift/gearshift_03n.jpg	seen	3219	269	3	None	669.0	9587.0	3.0	seen-within	2	3	96.87	2.98	True	False	96.85070705413818	99.8304660320282	[['x', 98.44566488265991]]	2.0	seen	False	True	1.5756648826599076	2.979758977890014	1.0	21.0	1619026448.9829	False		False	0.0	254.2285997867584	31.0
3	ses-001	23	images_fmri/mistletoe/mistletoe_03s.jpg	unseen	4827	403	3	None	1008.0	14363.0	3.0	unseen-between	1	3	101.34	2.98	False	True	101.3137469291687	104.29826998710632	[['y', 102.91963791847229]]	-2.0	unseen	False	True	1.5796379184722866	2.984523057937622	1.0	22.0	1619026453.446	False		False			
3	ses-001	24	images_fmri/tag/tag_03s.jpg	unseen	7527	628	3	None	1617.0	22828.0	3.0	unseen-within	1	3	105.81	2.98	True	True	105.80087089538574	108.76355695724487	[['a', 107.09672904014587]]	-2.0	unseen	False	True	1.2867290401458715	2.962686061859131	1.0	23.0	1619026457.9331	False		False			
3	ses-001	25	images_fmri/applesauce/applesauce_03s.jpg	seen	195	17	3	None	33.0	460.0	3.0	seen-within	2	3	110.28	2.98	True	False	110.26922082901	113.25066685676576	[['x', 111.41436386108398]]	2.0	seen	False	True	1.1343638610839832	2.9814460277557373	1.0	24.0	1619026462.4014	False		False	0.0	646.9872000217438	96.0
3	ses-001	26	images_fmri/jellyfish/jellyfish_03s.jpg	unseen	4011	335	3	None	846.0	12093.0	3.0	unseen-between	1	3	114.75	2.98	False	True	114.73172402381896	117.71412301063538	[['y', 116.61564993858337]]	-2.0	unseen	False	True	1.865649938583374	2.9823989868164062	1.0	25.0	1619026466.8639	False		False			
3	ses-001	27	images_fmri/golf_cart/golf_cart_03s.jpg	unseen	3315	277	3	None	690.0	9873.0	3.0	unseen-between	1	3	119.22	2.98	True	True	119.2022659778595	122.1800389289856	[['a', 120.567626953125]]	-2.0	unseen	False	True	1.3476269531250011	2.977772951126098	1.0	26.0	1619026471.3345	False		False			
3	ses-001	28	images_fmri/hand/hand_03s.jpg	unseen	3627	303	3	None	745.0	10671.0	3.0	unseen-between	1	3	123.69	2.98	True	False	123.66885685920715	126.65056991577148	[['a', 124.84055089950562]]	-2.0	unseen	False	True	1.1505508995056175	2.981713056564331	1.0	27.0	1619026475.8011	False		False			
3	ses-001	29	images_fmri/scone/scone_03s.jpg	unseen	6519	544	3	None	1381.0	19611.0	3.0	unseen-between	1	3	128.16	2.98	False	False	128.15022993087769	131.11570596694946	[['y', 129.40964198112488]]	-2.0	unseen	False	True	1.2496419811248811	2.9654760360717773	1.0	28.0	1619026480.2824	False		False			
3	ses-001	30	images_fmri/onion/onion_03n.jpg	unseen	5175	432	3	None	1078.0	15328.0	3.0	unseen-between	1	3	132.63	2.98	True	True	132.61727690696716	135.59996700286865	[['a', 133.78437685966492]]	-2.0	unseen	False	True	1.1543768596649215	2.9826900959014893	1.0	29.0	1619026484.7495	False		False			
3	ses-001	31	images_fmri/punch1/punch1_03s.jpg	unseen	6015	502	3	None	1255.0	17876.0	3.0	unseen-within	1	3	137.1	2.98	False	True	137.0808379650116	140.06827998161316	[['y', 138.09551286697388]]	-2.0	unseen	False	True	0.9955128669738826	2.9874420166015625	1.0	30.0	1619026489.213	False		False			
3	ses-001	32	images_fmri/mascara/mascara_03s.jpg	seen	4659	389	3	None	979.0	13949.0	3.0	seen-within	2	3	141.57	2.98	True	False	141.55155992507937	144.53055882453918	[['x', 142.69093799591064]]	2.0	seen	False	True	1.1209379959106514	2.978998899459839	1.0	31.0	1619026493.6838	False		False	0.0	129.62949991226196	29.0
3	ses-001	33	images_fmri/blind/blind_03s.jpg	unseen	747	63	3	None	141.0	2143.0	3.0	unseen-within	1	3	146.04	2.98	True	True	146.03296184539795	148.9968318939209	[['a', 147.25512886047363]]	-2.0	unseen	False	True	1.2151288604736408	2.963870048522949	1.0	32.0	1619026498.1652	False		False			
3	ses-001	34	images_fmri/burner/burner_03s.jpg	unseen	1155	97	3	None	225.0	3358.0	3.0	unseen-between	1	3	150.51	2.98	False	True	150.49690794944763	153.48276090621948	[['y', 151.48925399780273]]	-2.0	unseen	False	True	0.9792539978027436	2.9858529567718506	1.0	33.0	1619026502.6291	False		False			
3	ses-001	35	images_fmri/otter/otter_03s.jpg	unseen	5187	433	3	None	1086.0	15455.0	3.0	unseen-within	1	3	154.98	2.98	False	True	154.96437287330627	157.94585299491882	[['y', 156.34911799430847]]	-2.0	unseen	False	True	1.369117994308482	2.981480121612549	1.0	34.0	1619026507.0966	False		False			
3	ses-001	36	images_fmri/gargoyle/gargoyle_03s.jpg	unseen	3171	265	3	None	658.0	9448.0	3.0	unseen-between	1	3	159.45	2.98	False	False	159.4344940185547	162.41629195213318	[['y', 160.33081698417664]]	-2.0	unseen	False	True	0.8808169841766471	2.981797933578491	1.0	35.0	1619026511.5667	False		False			
3	ses-001	37	images_fmri/emerald/emerald_03s.jpg	unseen	2775	232	3	None	556.0	8057.0	3.0	unseen-between	1	3	163.92	2.98	True	False	163.89711499214172	166.878723859787	[['a', 165.19523000717163]]	-2.0	unseen	False	True	1.2752300071716434	2.981608867645264	1.0	36.0	1619026516.0293	False		False			
3	ses-001	38	images_fmri/hourglass/hourglass_03s.jpg	unseen	3867	323	3	None	808.0	11551.0	3.0	unseen-between	1	3	168.39	2.98	False	False	168.37939882278442	171.34653687477112	[['y', 169.31257486343384]]	-2.0	unseen	False	True	0.9225748634338516	2.9671380519866943	1.0	37.0	1619026520.5116	False		False			
3	ses-001	39	images_fmri/frog/frog_03s.jpg	unseen	3123	261	3	None	645.0	9284.0	3.0	unseen-between	1	3	172.86	2.98	False	True	172.84586882591248	175.82924103736875	[['y', 173.756098985672]]	-2.0	unseen	False	True	0.8960989856719834	2.983372211456299	1.0	38.0	1619026524.9781	False		False			
3	ses-001	40	images_fmri/crayfish/crayfish_03s.jpg	seen	2151	180	3	None	435.0	6285.0	3.0	seen-within	2	3	177.32999999999996	2.98	False	False	177.31307291984558	180.2940578460693	[['x', 178.90430903434753]]	2.0	seen	False	True	1.5743090343475783	2.980984926223755	1.0	39.0	1619026529.4453	False		False	0.0	156.44580006599426	35.0
3	ses-001	41	images_fmri/punch1/punch1_03s.jpg	seen	6015	502	3	None	1255.0	17876.0	3.0	seen-within	2	3	181.8	2.98	True	False	181.7797629833221	184.7624869346619	[['x', 182.83545899391174]]	2.0	seen	False	True	1.0354589939117318	2.9827239513397217	1.0	40.0	1619026533.912	False		False	0.0	44.69899988174439	10.0
3	ses-001	42	images_fmri/celery/celery_03s.jpg	unseen	1515	127	3	None	292.0	4262.0	3.0	unseen-between	1	3	186.27	2.98	True	False	186.2458639144897	189.2336039543152	[['a', 187.29738593101501]]	-2.0	unseen	False	True	1.0273859310150044	2.9877400398254395	1.0	41.0	1619026538.3781	False		False			
3	ses-001	43	images_fmri/pan/pan_03s.jpg	seen	5271	440	3	None	1104.0	15707.0	3.0	seen-within	2	3	190.74	2.98	True	False	190.73173999786377	193.6996068954468	[['x', 191.8300449848175]]	2.0	seen	False	True	1.0900449848174958	2.967866897583008	1.0	42.0	1619026542.8639	False		False	0.0	187.74429988861084	42.0
3	ses-001	44	images_fmri/trap/trap_03s.jpg	unseen	7935	662	3	None	1703.0	24021.0	3.0	unseen-between	1	3	195.21	2.98	False	False	195.1958589553833	198.1790590286255	[['y', 196.14817881584167]]	-2.0	unseen	False	True	0.9381788158416668	2.9832000732421875	1.0	43.0	1619026547.3281	False		False			
3	ses-001	45	images_fmri/kettle/kettle_03n.jpg	seen	4107	343	3	None	869.0	12428.0	3.0	seen-within	2	3	199.68	2.98	False	True	199.6621370315552	202.6474208831787	[['b', 200.81085586547852]]	2.0	seen	False	True	1.1308558654785088	2.985283851623535	1.0	44.0	1619026551.7943	False		False	0.0	348.10810017585754	52.0
3	ses-001	46	images_fmri/porcupine/porcupine_03s.jpg	seen	5847	488	3	None	1227.0	17455.0	3.0	seen-within	2	3	204.15	2.98	False	True	204.13313698768616	207.11205101013184	[['b', 205.21901488304138]]	2.0	seen	False	True	1.0690148830413762	2.9789140224456787	1.0	45.0	1619026556.2653	False		False	0.0	383.8610999584198	60.0
3	ses-001	47	images_fmri/tortilla/tortilla_03s.jpg	unseen	7851	655	3	None	1688.0	23816.0	3.0	unseen-between	1	3	208.62	2.98	False	True	208.5949559211731	211.57888793945312	[['y', 209.418958902359]]	-2.0	unseen	False	True	0.7989589023590042	2.9839320182800293	1.0	46.0	1619026560.7272	False		False			
3	ses-001	48	images_fmri/coverall/coverall_03s.jpg	unseen	2091	175	3	None	426.0	6138.0	3.0	unseen-within	1	3	213.09	2.98	True	False	213.081328868866	216.04971504211423	[['a', 214.2524709701538]]	-2.0	unseen	False	True	1.1624709701538052	2.968386173248291	1.0	47.0	1619026565.2135	False		False			
3	ses-001	49	images_fmri/skunk/skunk_03s.jpg	unseen	6819	569	3	None	1460.0	20696.0	3.0	unseen-between	1	3	217.56	2.98	False	True	217.549950838089	220.52885389328003	[['y', 219.1357388496399]]	-2.0	unseen	False	True	1.5757388496398903	2.97890305519104	1.0	48.0	1619026569.6822	False		False			
3	ses-001	50	images_fmri/strainer/strainer_03s.jpg	seen	7275	607	3	None	1567.0	22123.0	3.0	seen-within	2	3	222.03	2.98	True	False	222.0166459083557	224.9961309432984	[['x', 222.89287090301514]]	2.0	seen	False	True	0.8628709030151356	2.979485034942627	1.0	49.0	1619026574.1489	False		False	0.0	178.7978000640869	40.0
3	ses-001	51	images_fmri/ping-pong_table/ping-pong_table_03s.jpg	seen	5631	470	3	None	1185.0	16855.0	3.0	seen-within	2	3	226.5	2.98	True	True	226.48208785057068	229.4616749286652	[['b', 227.8447949886322]]	2.0	seen	False	True	1.344794988632202	2.9795870780944824	1.0	50.0	1619026578.6143	False		False	0.0	178.79469990730286	40.0
3	ses-001	52	images_fmri/sewing_kit/sewing_kit_03s.jpg	seen	6603	551	3	None	1407.0	19970.0	3.0	seen-within	2	3	230.97	2.98	True	False	230.94862699508667	233.9271550178528	[['x', 232.30634999275208]]	2.0	seen	False	True	1.3363499927520763	2.9785280227661133	1.0	51.0	1619026583.0808	False		False	0.0	392.7941999435425	62.0
3	ses-001	53	images_fmri/otter/otter_03s.jpg	seen	5187	433	3	None	1086.0	15455.0	3.0	seen-within	2	3	235.44	2.98	True	True	235.42729902267456	238.39433002471924	[['y', 236.96040081977844]]	1.0	seen	False	False	1.5204008197784449	2.9670310020446777	1.0	52.0	1619026587.5595	False		False	0.0	80.46289992332458	18.0
3	ses-001	54	images_fmri/mouse1/mouse1_03s.jpg	unseen	4935	412	3	None	1027.0	14634.0	3.0	unseen-between	1	3	239.91	2.98	False	False	239.8977379798889	242.8768048286438	[['y', 241.2846179008484]]	-2.0	unseen	False	True	1.374617900848392	2.979066848754883	1.0	53.0	1619026592.0299	False		False			
3	ses-001	55	images_fmri/tag/tag_03s.jpg	seen	7527	628	3	None	1617.0	22828.0	3.0	seen-within	2	3	244.38	2.98	True	False	244.36505603790283	247.34416890144348	[['x', 245.5393569469452]]	2.0	seen	False	True	1.159356946945195	2.9791128635406494	1.0	54.0	1619026596.4973	False		False	0.0	138.564199924469	31.0
3	ses-001	56	images_fmri/seesaw/seesaw_03s.jpg	unseen	6591	550	3	None	1403.0	19919.0	3.0	unseen-between	1	3	248.85	2.98	True	False	248.8320100307465	251.815171957016	[['a', 249.9304440021515]]	-2.0	unseen	False	True	1.080444002151495	2.9831619262695312	1.0	55.0	1619026600.9642	False		False			
3	ses-001	57	images_fmri/blind/blind_03s.jpg	seen	747	63	3	None	141.0	2143.0	3.0	seen-within	2	3	253.32	2.98	True	True	253.29813504219047	256.2762379646301	[['b', 254.60428285598755]]	2.0	seen	False	True	1.2842828559875556	2.978102922439575	1.0	56.0	1619026605.4303	False		False	0.0	107.26510000228882	24.0
3	ses-001	58	images_fmri/streetlight/streetlight_03s.jpg	unseen	7299	609	3	None	1572.0	22199.0	3.0	unseen-between	1	3	257.79	2.98	True	True	257.7795979976654	260.7427878379822	[['a', 259.3756148815155]]	-2.0	unseen	False	True	1.5856148815154825	2.9631898403167725	1.0	57.0	1619026609.9118	False		False			
3	ses-001	59	images_fmri/elephant/elephant_03n.jpg	unseen	2763	231	3	None	555.0	8045.0	3.0	unseen-between	1	3	262.26	2.98	False	True	262.2434380054474	265.2262008190155	[['y', 263.87282395362854]]	-2.0	unseen	False	True	1.6128239536285491	2.9827628135681152	1.0	58.0	1619026614.3756	False		False			
3	ses-001	60	images_fmri/coverall/coverall_03s.jpg	seen	2091	175	3	None	426.0	6138.0	3.0	seen-within	2	3	266.73	2.98	False	True	266.7106239795685	269.6967890262604	[['b', 267.7063419818878]]	2.0	seen	False	True	0.9763419818877992	2.9861650466918945	1.0	59.0	1619026618.8428	False		False	0.0	53.6292998790741	12.0
3	ses-002	1	images_fmri/bib/bib_03s.jpg	unseen	603	51	3	None	123.0	1873.0	3.0	unseen-within	1	1	3.0	2.98	True	False	2.977972984313965	5.960508108139038	[['a', 4.446725130081177]]	-2.0	unseen	False	True	1.4467251300811768	2.982535123825073	1.0	0.0	1619630447.383	False		False			
3	ses-002	2	images_fmri/flashbulb/flashbulb_03s.jpg	unseen	2991	250	3	None	611.0	8829.0	3.0	unseen-between	1	1	7.47	2.98	True	True	7.44445013999939	10.42747402191162	[['a', 8.143376111984253]]	-2.0	unseen	False	True	0.6733761119842532	2.9830238819122314	1.0	1.0	1619630451.8495	False		False			
3	ses-002	3	images_fmri/hippopotamus/hippopotamus_03s.jpg	unseen	3783	316	3	None	782.0	11186.0	3.0	unseen-within	1	1	11.94	2.98	False	True	11.9271399974823	14.89366102218628	[['a', 14.06853699684143]]	1.0	seen	True	False	2.128536996841431	2.9665210247039795	1.0	2.0	1619630456.3322	False		False			
3	ses-002	4	images_fmri/man/man_03s.jpg	unseen	4563	381	3	None	964.0	13740.0	3.0	unseen-between	1	1	16.41	2.98	True	False	16.394009113311768	19.376896142959595	[['a', 17.732379913330078]]	-2.0	unseen	False	True	1.322379913330078	2.982887029647827	1.0	3.0	1619630460.7991	False		False			
3	ses-002	5	images_fmri/gearshift/gearshift_03n.jpg	seen	3219	269	3	None	669.0	9587.0	3.0	seen-within-between	3	1	20.88	2.98	False	True	20.860583066940308	23.843873977661133	[['y', 21.99381399154663]]	-2.0	unseen	True	True	1.113813991546632	2.983290910720825	1.0	4.0	1619630465.2656	False		False	7.0	0.0	43.0
3	ses-002	6	images_fmri/streetlight/streetlight_03s.jpg	seen	7299	609	3	None	1572.0	22199.0	3.0	seen-between	2	1	25.35	2.98	False	True	25.327245950698853	28.310826063156128	[['y', 26.375088930130005]]	-2.0	unseen	True	True	1.0250889301300037	2.9835801124572754	1.0	5.0	1619630469.7323	False		False	7.0	0.0	8.0
3	ses-002	7	images_fmri/onion/onion_03n.jpg	seen	5175	432	3	None	1078.0	15328.0	3.0	seen-between	2	1	29.82	2.98	True	True	29.81001305580139	32.77698302268982	[['x', 31.603503942489624]]	-1.0	unseen	True	False	1.7835039424896235	2.966969966888428	1.0	6.0	1619630474.2151	False		False	7.0	0.0	37.0
3	ses-002	8	images_fmri/blackberry/blackberry_03s.jpg	seen	687	58	3	None	136.0	2078.0	3.0	seen-between	2	1	34.29	2.98	False	True	34.276581048965454	37.25978994369507	[['a', 36.63944411277771]]	1.0	seen	False	False	2.349444112777711	2.9832088947296143	1.0	7.0	1619630478.6816	False		False	7.0	0.0	114.0
3	ses-002	9	images_fmri/blind/blind_03s.jpg	seen	747	63	3	None	141.0	2143.0	3.0	seen-within-between	3	1	38.76	2.98	True	True	38.74328804016113	41.72675895690918	[['a', 39.915586948394775]]	-2.0	unseen	True	True	1.1555869483947774	2.983470916748047	1.0	8.0	1619630483.1483	False		False	7.0	0.0	12.0
3	ses-002	10	images_fmri/pineapple/pineapple_03n.jpg	seen	5619	469	3	None	1183.0	16831.0	3.0	seen-within-between	3	1	43.23	2.98	True	True	43.21021294593811	46.19364500045776	[['b', 45.23119902610779]]	2.0	seen	False	True	2.001199026107791	2.9834320545196533	1.0	9.0	1619630487.6153	False		False	7.0	0.0	149.0
3	ses-002	11	images_fmri/hamburger/hamburger_03s.jpg	seen	3579	299	3	None	741.0	10621.0	3.0	seen-within-between	3	1	47.7	2.98	False	False	47.67949414253235	50.6619291305542	[['a', 50.067547082901]]	1.0	seen	False	False	2.367547082900998	2.9824349880218506	1.0	10.0	1619630492.0845	False		False	7.0	0.0	138.0
3	ses-002	12	images_fmri/onion/onion_03n.jpg	seen	5175	432	3	None	1078.0	15328.0	3.0	seen-between-within	3	1	52.17	2.98	False	False	52.15943503379822	55.12658596038818	[['x', 53.35641312599182]]	2.0	seen	False	True	1.1864131259918196	2.967150926589966	1.0	11.0	1619630496.5645	False		False	0.0	22.34940004348755	5.0
3	ses-002	13	images_fmri/streetlight/streetlight_03s.jpg	seen	7299	609	3	None	1572.0	22199.0	3.0	seen-between-within	3	1	56.64	2.98	False	False	56.62616515159607	59.60924410820007	[['x', 57.796406984329224]]	2.0	seen	False	True	1.156406984329223	2.983078956604004	1.0	12.0	1619630501.0312	False		False	0.0	31.29889988899231	7.0
3	ses-002	14	images_fmri/wheelchair/wheelchair_03n.jpg	unseen	8439	704	3	None	1809.0	25478.0	3.0	unseen-within	1	1	61.11	2.98	False	True	61.09325408935547	64.07577013969421	[['y', 63.20441508293152]]	-2.0	unseen	False	True	2.094415082931519	2.982516050338745	1.0	13.0	1619630505.4983	False		False			
3	ses-002	15	images_fmri/carrot/carrot_03s.jpg	seen	1443	121	3	None	278.0	4077.0	3.0	seen-between	2	1	65.58	2.98	False	True	65.55988502502441	68.54226398468018	[['x', 67.95801591873169]]	-1.0	unseen	True	False	2.378015918731691	2.9823789596557617	1.0	14.0	1619630509.9649	False		False	7.0	0.0	71.0
3	ses-002	16	images_fmri/slingshot/slingshot_03s.jpg	unseen	6843	571	3	None	1468.0	20801.0	3.0	unseen-between	1	1	70.05	2.98	False	False	70.0260419845581	73.0088701248169	[['y', 71.66421413421631]]	-2.0	unseen	False	True	1.6142141342163114	2.982828140258789	1.0	15.0	1619630514.4311	False		False			
3	ses-002	17	images_fmri/broccoli/broccoli_03s.jpg	seen	1011	85	3	None	202.0	3050.0	3.0	seen-between	2	1	74.52	2.98	False	True	74.5089099407196	77.47592115402222	[['x', 76.81669998168945]]	-1.0	unseen	True	False	2.296699981689457	2.9670112133026123	1.0	16.0	1619630518.914	False		False	7.0	0.0	178.0
3	ses-002	18	images_fmri/car/car_03s.jpg	unseen	1407	118	3	None	268.0	3942.0	3.0	unseen-within	1	1	78.99	2.98	True	False	78.9759271144867	81.95877408981323	[['a', 80.49323797225952]]	-2.0	unseen	False	True	1.5032379722595266	2.982846975326538	1.0	17.0	1619630523.381	False		False			
3	ses-002	19	images_fmri/hedge/hedge_03s.jpg	seen	3711	310	3	None	774.0	11073.0	3.0	seen-between	2	1	83.46	2.98	True	False	83.44225311279297	86.42519497871399	[['a', 85.24089097976685]]	-2.0	unseen	True	True	1.780890979766852	2.9829418659210205	1.0	18.0	1619630527.8473	False		False	7.0	0.0	141.0
3	ses-002	20	images_fmri/bear/bear_03s.jpg	seen	495	42	3	None	106.0	1593.0	3.0	seen-between	2	1	87.92999999999998	2.98	False	True	87.90919709205627	90.89184212684631	[['b', 89.45768594741821]]	2.0	seen	False	True	1.5276859474182345	2.982645034790039	1.0	19.0	1619630532.3142	False		False	7.0	0.0	59.0
3	ses-002	21	images_fmri/seesaw/seesaw_03s.jpg	seen	6591	550	3	None	1403.0	19919.0	3.0	seen-between	2	1	92.4	2.98	False	False	92.37556314468384	95.35903406143188	[['b', 94.17394208908081]]	-1.0	unseen	True	False	1.7739420890808049	2.983470916748047	1.0	20.0	1619630536.7806	False		False	7.0	0.0	25.0
3	ses-002	22	images_fmri/bear/bear_03s.jpg	seen	495	42	3	None	106.0	1593.0	3.0	seen-between-within	3	1	96.87	2.98	True	True	96.86071610450745	99.83242297172546	[['b', 97.99461007118225]]	2.0	seen	False	True	1.1246100711822464	2.9717068672180176	1.0	21.0	1619630541.2658	False		False	0.0	8.951600074768066	2.0
3	ses-002	23	images_fmri/sloth/sloth_03s.jpg	unseen	6855	572	3	None	1472.0	20853.0	3.0	unseen-within	1	1	101.34	2.98	False	True	101.32528114318848	104.30821013450624	[['y', 102.80245399475098]]	-2.0	unseen	False	True	1.4624539947509732	2.982928991317749	1.0	22.0	1619630545.7303	False		False			
3	ses-002	24	images_fmri/sewing_kit/sewing_kit_03s.jpg	seen	6603	551	3	None	1407.0	19970.0	3.0	seen-within-between	3	1	105.81	2.98	True	False	105.7918529510498	108.77474594116212	[['x', 107.32159495353699]]	2.0	seen	False	True	1.511594953536985	2.9828929901123047	1.0	23.0	1619630550.1969	False		False	7.0	0.0	32.0
3	ses-002	25	images_fmri/skunk/skunk_03s.jpg	seen	6819	569	3	None	1460.0	20696.0	3.0	seen-between	2	1	110.28	2.98	True	True	110.25846195220949	113.24122595787048	[['x', 111.87153196334839]]	-1.0	unseen	True	False	1.5915319633483875	2.9827640056610107	1.0	24.0	1619630554.6635	False		False	7.0	0.0	36.0
3	ses-002	26	images_fmri/touchpad/touchpad_03s.jpg	unseen	7875	657	3	None	1692.0	23872.0	3.0	unseen-within	1	1	114.75	2.98	False	False	114.72497606277466	117.70850110054016	[['y', 115.92278099060059]]	-2.0	unseen	False	True	1.172780990600586	2.983525037765503	1.0	25.0	1619630559.13	False		False			
3	ses-002	27	images_fmri/knot/knot_03s.jpg	seen	4167	348	3	None	884.0	12656.0	3.0	seen-within-between	3	1	119.22	2.98	False	True	119.20777201652528	122.17472195625304	[['a', 121.46057105064392]]	1.0	seen	False	False	2.240571050643922	2.966949939727783	1.0	26.0	1619630563.6128	False		False	7.0	0.0	186.0
3	ses-002	28	images_fmri/boy/boy_03s.jpg	seen	927	78	3	None	185.0	2801.0	3.0	seen-between	2	1	123.69	2.98	True	False	123.67473816871644	126.65754699707033	[['a', 125.1423830986023]]	-2.0	unseen	True	True	1.4523830986022972	2.982808828353882	1.0	27.0	1619630568.0798	False		False	7.0	0.0	154.0
3	ses-002	29	images_fmri/cufflink/cufflink_03s.jpg	unseen	2283	191	3	None	459.0	6640.0	3.0	unseen-within	1	1	128.16	2.98	False	False	128.14156699180603	131.12460803985596	[['y', 129.31256794929504]]	-2.0	unseen	False	True	1.1525679492950474	2.9830410480499268	1.0	28.0	1619630572.5466	False		False			
3	ses-002	30	images_fmri/scarecrow/scarecrow_03s.jpg	unseen	6495	542	3	None	1377.0	19556.0	3.0	unseen-within	1	1	132.63	2.98	True	True	132.60780215263367	135.59091806411743	[['a', 133.71626901626587]]	-2.0	unseen	False	True	1.0862690162658737	2.9831159114837646	1.0	29.0	1619630577.0129	False		False			
3	ses-002	31	images_fmri/mosquito_net/mosquito_net_03s.jpg	unseen	4899	409	3	None	1022.0	14562.0	3.0	unseen-within	1	1	137.1	2.98	True	True	137.07441401481628	140.05770206451416	[['a', 138.2403440475464]]	-2.0	unseen	False	True	1.1403440475463924	2.983288049697876	1.0	30.0	1619630581.4795	False		False			
3	ses-002	32	images_fmri/shovel/shovel_03n.jpg	seen	6699	559	3	None	1433.0	20317.0	3.0	seen-within-between	3	1	141.57	2.98	True	False	141.55722403526306	144.52601099014282	[['y', 143.20465111732483]]	1.0	seen	False	False	1.634651117324836	2.9687869548797607	1.0	31.0	1619630585.9623	False		False	7.0	0.0	112.0
3	ses-002	33	images_fmri/hairbrush/hairbrush_03s.jpg	seen	3555	297	3	None	735.0	10538.0	3.0	seen-between	2	1	146.04	2.98	False	False	146.0257019996643	149.01467514038086	[['y', 147.07863306999207]]	-2.0	unseen	True	True	1.0386330699920734	2.9889731407165527	1.0	32.0	1619630590.4308	False		False	7.0	0.0	111.0
3	ses-002	34	images_fmri/guacamole/guacamole_03s.jpg	seen	3495	292	3	None	720.0	10313.0	3.0	seen-between	2	1	150.51	2.98	False	False	150.49768805503845	153.47573494911194	[['a', 152.82713794708252]]	1.0	seen	False	False	2.3171379470825286	2.9780468940734863	1.0	33.0	1619630594.9027	False		False	7.0	0.0	146.0
3	ses-002	35	images_fmri/boy/boy_03s.jpg	seen	927	78	3	None	185.0	2801.0	3.0	seen-between-within	3	1	154.98	2.98	True	False	154.95863103866577	157.94717597961426	[['x', 156.19423413276672]]	2.0	seen	False	True	1.214234132766734	2.9885449409484863	1.0	34.0	1619630599.3637	False		False	0.0	31.283900022506717	7.0
3	ses-002	36	images_fmri/frog/frog_03s.jpg	seen	3123	261	3	None	645.0	9284.0	3.0	seen-between	2	1	159.45	2.98	False	True	159.44018697738647	162.40662908554077	[['x', 161.4353539943695]]	-1.0	unseen	True	False	1.9853539943695184	2.966442108154297	1.0	35.0	1619630603.8452	False		False	7.0	0.0	57.0
3	ses-002	37	images_fmri/granite/granite_03s.jpg	unseen	3363	281	3	None	701.0	10039.0	3.0	unseen-between	1	1	163.92	2.98	True	False	163.90669107437134	166.8899700641632	[['a', 165.41802501678467]]	-2.0	unseen	False	True	1.4980250167846805	2.98327898979187	1.0	36.0	1619630608.3117	False		False			
3	ses-002	38	images_fmri/skunk/skunk_03s.jpg	seen	6819	569	3	None	1460.0	20696.0	3.0	seen-between-within	3	1	168.39	2.98	True	True	168.3736970424652	171.35642409324646	[['b', 170.0192151069641]]	2.0	seen	False	True	1.629215106964125	2.98272705078125	1.0	37.0	1619630612.7787	False		False	0.0	58.11520004272461	13.0
3	ses-002	39	images_fmri/water_fountain/water_fountain_03s.jpg	unseen	8379	699	3	None	1791.0	25236.0	3.0	unseen-within	1	1	172.86	2.98	True	False	172.84020400047302	175.8230061531067	[['a', 174.47710609436035]]	-2.0	unseen	False	True	1.617106094360338	2.982802152633667	1.0	38.0	1619630617.2453	False		False			
3	ses-002	40	images_fmri/windowsill/windowsill_03s.jpg	unseen	8487	708	3	None	1820.0	25622.0	3.0	unseen-between	1	1	177.32999999999996	2.98	True	False	177.30674004554749	180.289479970932	[['a', 178.68722796440125]]	-2.0	unseen	False	True	1.3572279644012897	2.982739925384521	1.0	39.0	1619630621.7118	False		False			
3	ses-002	41	images_fmri/meat/meat_03s.jpg	unseen	4707	393	3	None	988.0	14073.0	3.0	unseen-within	1	1	181.8	2.98	False	True	181.7895531654358	184.7564661502838	[['y', 182.99515104293823]]	-2.0	unseen	False	True	1.195151042938221	2.9669129848480225	1.0	40.0	1619630626.1946	False		False			
3	ses-002	42	images_fmri/eyepiece/eyepiece_03s.jpg	unseen	2823	236	3	None	569.0	8234.0	3.0	unseen-within	1	1	186.27	2.98	False	True	186.2564780712128	189.23932909965515	[['x', 187.84922909736633]]	-1.0	unseen	False	False	1.5792290973663228	2.982851028442383	1.0	41.0	1619630630.6615	False		False			
3	ses-002	43	images_fmri/spider/spider_03s.jpg	seen	7059	589	3	None	1514.0	21407.0	3.0	seen-within-between	3	1	190.74	2.98	False	False	190.722843170166	193.706817150116	[['a', 192.72405815124512]]	1.0	seen	False	False	1.984058151245108	2.983973979949951	1.0	42.0	1619630635.1279	False		False	7.0	0.0	186.0
3	ses-002	44	images_fmri/broccoli/broccoli_03s.jpg	seen	1011	85	3	None	202.0	3050.0	3.0	seen-between-within	3	1	195.21	2.98	True	False	195.19235110282892	198.17872500419617	[['x', 196.13495206832886]]	2.0	seen	False	True	0.9249520683288496	2.9863739013671875	1.0	43.0	1619630639.5974	False		False	0.0	120.6833999156952	27.0
3	ses-002	45	images_fmri/water_fountain/water_fountain_03s.jpg	seen	8379	699	3	None	1791.0	25236.0	3.0	seen-within	2	1	199.68	2.98	False	True	199.66227316856384	202.6465060710907	[['b', 200.87694692611694]]	2.0	seen	False	True	1.1969469261169363	2.9842329025268555	1.0	44.0	1619630644.0673	False		False	0.0	26.82200002670288	6.0
3	ses-002	46	images_fmri/llama/llama_03s.jpg	seen	4467	373	3	None	939.0	13407.0	3.0	seen-within-between	3	1	204.15	2.98	True	False	204.144415140152	207.11010909080505	[['y', 205.72603297233582]]	1.0	seen	False	False	1.5760329723358095	2.965693950653076	1.0	45.0	1619630648.5495	False		False	7.0	0.0	107.0
3	ses-002	47	images_fmri/chalk/chalk_03s.jpg	unseen	1563	131	3	None	303.0	4413.0	3.0	unseen-between	1	1	208.62	2.98	False	False	208.60601806640625	211.58891701698303	[['y', 210.45318007469177]]	-2.0	unseen	False	True	1.833180074691768	2.9828989505767822	1.0	46.0	1619630653.0111	False		False			
3	ses-002	48	images_fmri/grate/grate_03s.jpg	seen	3423	286	3	None	708.0	10156.0	3.0	seen-within-between	3	1	213.09	2.98	True	True	213.07260513305664	216.0555920600891	[['y', 215.43984699249268]]	1.0	seen	False	False	2.3498469924926724	2.9829869270324707	1.0	47.0	1619630657.4777	False		False	7.0	0.0	112.0
3	ses-002	49	images_fmri/touchpad/touchpad_03s.jpg	seen	7875	657	3	None	1692.0	23872.0	3.0	seen-within	2	1	217.56	2.98	True	True	217.5390951633453	220.52243995666504	[['b', 218.49364614486694]]	2.0	seen	False	True	0.9336461448669412	2.983344793319702	1.0	48.0	1619630661.9441	False		False	0.0	102.81409978866576	23.0
3	ses-002	50	images_fmri/eyepiece/eyepiece_03s.jpg	seen	2823	236	3	None	569.0	8234.0	3.0	seen-within	2	1	222.03	2.98	False	True	222.0058391094208	224.9889531135559	[['b', 222.9000301361084]]	2.0	seen	False	True	0.8700301361083973	2.983114004135132	1.0	49.0	1619630666.4109	False		False	0.0	35.74940013885498	8.0
3	ses-002	51	images_fmri/mascara/mascara_03s.jpg	seen	4659	389	3	None	979.0	13949.0	3.0	seen-within-between	3	1	226.5	2.98	True	True	226.4884569644928	229.4555070400238	[['a', 227.52783393859863]]	-2.0	unseen	True	True	1.0278339385986328	2.967050075531006	1.0	50.0	1619630670.8935	False		False	7.0	0.0	79.0
3	ses-002	52	images_fmri/crouton/crouton_03s.jpg	seen	2211	185	3	None	446.0	6452.0	3.0	seen-within-between	3	1	230.97	2.98	True	True	230.95547699928284	233.93874502182007	[['a', 231.85859608650208]]	-2.0	unseen	True	True	0.8885960865020763	2.9832680225372314	1.0	51.0	1619630675.3605	False		False	7.0	0.0	200.0
3	ses-002	53	images_fmri/napkin_ring/napkin_ring_03s.jpg	unseen	5019	419	3	None	1052.0	14976.0	3.0	unseen-within	1	1	235.44	2.98	True	False	235.4220061302185	238.40550303459167	[['a', 236.47882509231567]]	-2.0	unseen	False	True	1.038825092315676	2.983496904373169	1.0	52.0	1619630679.8271	False		False			
3	ses-002	54	images_fmri/birdcage/birdcage_03s.jpg	unseen	651	55	3	None	131.0	2011.0	3.0	unseen-within	1	1	239.91	2.98	False	False	239.8886201381684	242.87467503547668	[['y', 240.85364413261414]]	-2.0	unseen	False	True	0.9436441326141392	2.9860548973083496	1.0	53.0	1619630684.2937	False		False			
3	ses-002	55	images_fmri/birdcage/birdcage_03s.jpg	seen	651	55	3	None	131.0	2011.0	3.0	seen-within	2	1	244.38	2.98	False	False	244.36115908622745	247.34001898765564	[['y', 245.5015790462494], ['x', 246.17090606689453]]	-2.0	unseen	True	True	1.1215790462493942	2.9788599014282227	1.0	54.0	1619630688.7662	False		False	0.0	4.4725000858306885	1.0
3	ses-002	56	images_fmri/curtain/curtain_03s.jpg	seen	2319	194	3	None	466.0	6757.0	3.0	seen-between	2	1	248.85	2.98	True	False	248.8378779888153	251.80439400672915	[['a', 250.7197880744934]]	-2.0	unseen	True	True	1.8697880744934137	2.9665160179138184	1.0	55.0	1619630693.2429	False		False	7.0	0.0	157.0
3	ses-002	57	images_fmri/strainer/strainer_03s.jpg	seen	7275	607	3	None	1567.0	22123.0	3.0	seen-within-between	3	1	253.32	2.98	False	True	253.3053221702576	256.2877230644226	[['y', 255.16979813575745]]	-2.0	unseen	True	True	1.849798135757453	2.982400894165039	1.0	56.0	1619630697.7104	False		False	7.0	0.0	67.0
3	ses-002	58	images_fmri/needle/needle_03s.jpg	seen	5043	421	3	None	1056.0	15031.0	3.0	seen-within-between	3	1	257.79	2.98	False	True	257.77133798599243	260.75430703163147	[['y', 259.8251910209656]]	-2.0	unseen	True	True	2.035191020965556	2.982969045639038	1.0	57.0	1619630702.1764	False		False	7.0	0.0	192.0
3	ses-002	59	images_fmri/napkin_ring/napkin_ring_03s.jpg	seen	5019	419	3	None	1052.0	14976.0	3.0	seen-within	2	1	262.26	2.98	True	False	262.23820996284485	265.22164607048035	[['x', 263.28479194641113]]	2.0	seen	False	True	1.024791946411142	2.983436107635498	1.0	58.0	1619630706.6433	False		False	0.0	26.81620001792908	6.0
3	ses-002	60	images_fmri/bib/bib_03s.jpg	seen	603	51	3	None	123.0	1873.0	3.0	seen-within	2	1	266.73	2.98	True	False	266.7044589519501	269.68795013427734	[['x', 267.6880829334259]]	2.0	seen	False	True	0.9580829334258852	2.9834911823272705	1.0	59.0	1619630711.1095	False		False	0.0	263.7265000343323	59.0
3	ses-002	1	images_fmri/girl/girl_03s.jpg	seen	3255	272	3	None	677.0	9697.0	3.0	seen-within-between	3	2	3.0	2.98	False	False	2.9837851524353027	5.967388153076172	[['x', 5.191612005233765]]	2.0	seen	False	True	2.1916120052337646	2.983603000640869	1.0	0.0	1619630829.7567	False		False	7.0	0.0	132.0
3	ses-002	2	images_fmri/clarinet/clarinet_03s.jpg	seen	1779	149	3	None	351.0	5077.0	3.0	seen-within-between	3	2	7.47	2.98	True	True	7.450603008270264	10.43307614326477	[['y', 8.996439933776855]]	1.0	seen	False	False	1.5264399337768555	2.982473134994507	1.0	1.0	1619630834.2235	False		False	7.0	0.0	146.0
3	ses-002	3	images_fmri/tweezers/tweezers_03s.jpg	seen	8079	674	3	None	1740.0	24524.0	3.0	seen-between	2	2	11.94	2.98	True	False	11.916814088821411	14.899821996688845	[['a', 13.297493934631348]]	-2.0	unseen	True	True	1.3574939346313482	2.983007907867432	1.0	2.0	1619630838.6897	False		False	7.0	0.0	151.0
3	ses-002	4	images_fmri/wallet/wallet_03s.jpg	seen	8271	690	3	None	1777.0	25049.0	3.0	seen-within-between	3	2	16.41	2.98	True	False	16.383296012878418	19.366576194763184	[['x', 17.872464895248413]]	2.0	seen	False	True	1.462464895248413	2.9832801818847656	1.0	3.0	1619630843.1562	False		False	7.0	0.0	160.0
3	ses-002	5	images_fmri/steak/steak_03s.jpg	seen	7203	601	3	None	1545.0	21826.0	3.0	seen-within-between	3	2	20.88	2.98	True	False	20.86622405052185	23.849529027938843	[['a', 22.865351915359497]]	-2.0	unseen	True	True	1.985351915359498	2.983304977416992	1.0	4.0	1619630847.6391	False		False	7.0	0.0	157.0
3	ses-002	6	images_fmri/sloth/sloth_03s.jpg	seen	6855	572	3	None	1472.0	20853.0	3.0	seen-within	2	2	25.35	2.98	True	True	25.333263158798218	28.316034078598022	[['b', 26.531296968460083]]	2.0	seen	False	True	1.1812969684600816	2.9827709197998047	1.0	5.0	1619630852.1062	False		False	0.0	306.3759000301361	43.0
3	ses-002	7	images_fmri/wheelchair/wheelchair_03n.jpg	seen	8439	704	3	None	1809.0	25478.0	3.0	seen-within	2	2	29.82	2.98	False	True	29.799671173095703	32.782615184783936	[['y', 31.537508010864258]]	-2.0	unseen	True	True	1.7175080108642575	2.9829440116882324	1.0	6.0	1619630856.5726	False		False	0.0	351.0742998123169	53.0
3	ses-002	8	images_fmri/crayfish/crayfish_03s.jpg	seen	2151	180	3	None	435.0	6285.0	3.0	seen-within-between	3	2	34.29	2.98	False	False	34.26635718345642	37.2496030330658	[['x', 35.96037197113037]]	2.0	seen	False	True	1.670371971130372	2.983245849609375	1.0	7.0	1619630861.0393	False		False	7.0	0.0	88.0
3	ses-002	9	images_fmri/grapefruit/grapefruit_03s.jpg	seen	3399	284	3	None	704.0	10090.0	3.0	seen-between	2	2	38.76	2.98	True	False	38.7328941822052	41.71560907363892	[['b', 40.060343980789185], ['a', 40.47666692733765]]	-1.0	unseen	True	False	1.3003439807891866	2.982714891433716	1.0	8.0	1619630865.5058	False		False	7.0	0.0	201.0
3	ses-002	10	images_fmri/thermostat/thermostat_03s.jpg	seen	7659	639	3	None	1649.0	23284.0	3.0	seen-within-between	3	2	43.23	2.98	True	True	43.21564698219299	46.18268513679504	[['b', 44.5773138999939]]	2.0	seen	False	True	1.3473138999938996	2.967038154602051	1.0	9.0	1619630869.9885	False		False	7.0	0.0	172.0
3	ses-002	11	images_fmri/hairbrush/hairbrush_03s.jpg	seen	3555	297	3	None	735.0	10538.0	3.0	seen-between-within	3	2	47.7	2.98	False	False	47.68271017074585	50.665449142456055	[['x', 48.9009108543396]]	2.0	seen	False	True	1.2009108543395968	2.982738971710205	1.0	10.0	1619630874.4556	False		False	0.0	284.0248000621796	38.0
3	ses-002	12	images_fmri/coleslaw/coleslaw_03s.jpg	unseen	1923	161	3	None	387.0	5568.0	3.0	unseen-within	1	2	52.17	2.98	True	True	52.149243116378784	55.13268518447876	[['a', 53.59005093574524]]	-2.0	unseen	False	True	1.4200509357452376	2.983442068099976	1.0	11.0	1619630878.9221	False		False			
3	ses-002	13	images_fmri/grapefruit/grapefruit_03s.jpg	seen	3399	284	3	None	704.0	10090.0	3.0	seen-between-within	3	2	56.64	2.98	False	False	56.61571002006531	59.59902811050415	[['y', 58.386945962905884]]	-2.0	unseen	True	True	1.7469459629058832	2.9833180904388428	1.0	12.0	1619630883.3886	False		False	0.0	17.882800102233887	4.0
3	ses-002	14	images_fmri/key/key_03s.jpg	seen	4119	344	3	None	870.0	12443.0	3.0	seen-within-between	3	2	61.11	2.98	False	False	61.08239102363586	64.06559109687805	[['y', 62.19944405555725]]	-2.0	unseen	True	True	1.0894440555572515	2.9832000732421875	1.0	13.0	1619630887.8553	False		False	7.0	0.0	173.0
3	ses-002	15	images_fmri/bubble/bubble_03s.jpg	seen	1059	89	3	None	208.0	3131.0	3.0	seen-between	2	2	65.58	2.98	False	True	65.56515312194824	68.53207898139954	[['y', 66.66355085372925]]	-2.0	unseen	True	True	1.0835508537292498	2.966925859451294	1.0	14.0	1619630892.3381	False		False	7.0	0.0	246.0
3	ses-002	16	images_fmri/pancake/pancake_03s.jpg	unseen	5283	441	3	None	1105.0	15724.0	3.0	unseen-within	1	2	70.05	2.98	False	False	70.03213405609131	73.01542901992798	[['y', 71.11623191833496]]	-2.0	unseen	False	True	1.0662319183349638	2.98329496383667	1.0	15.0	1619630896.805	False		False			
3	ses-002	17	images_fmri/extinguisher/extinguisher_03s.jpg	unseen	2799	234	3	None	564.0	8161.0	3.0	unseen-within	1	2	74.52	2.98	True	False	74.49858903884888	77.48188519477844	[['a', 75.99426794052124]]	-2.0	unseen	False	True	1.4742679405212442	2.983296155929565	1.0	16.0	1619630901.2715	False		False			
3	ses-002	18	images_fmri/bowl/bowl_03s.jpg	seen	891	75	3	None	178.0	2704.0	3.0	seen-between	2	2	78.99	2.98	True	False	78.96516799926758	81.94804501533508	[['a', 80.76288986206055]]	-2.0	unseen	True	True	1.772889862060552	2.982877016067505	1.0	17.0	1619630905.7381	False		False	7.0	0.0	146.0
3	ses-002	19	images_fmri/potato/potato_03n.jpg	unseen	5895	492	3	None	1232.0	17520.0	3.0	unseen-between	1	2	83.46	2.98	False	False	83.4318060874939	86.41505098342896	[['y', 85.3526918888092]]	-2.0	unseen	False	True	1.8926918888092104	2.9832448959350586	1.0	18.0	1619630910.2047	False		False			
3	ses-002	20	images_fmri/guacamole/guacamole_03s.jpg	seen	3495	292	3	None	720.0	10313.0	3.0	seen-between-within	3	2	87.92999999999998	2.98	False	True	87.91455101966858	90.8978180885315	[['b', 89.23513889312744]]	2.0	seen	False	True	1.305138893127463	2.983267068862915	1.0	19.0	1619630914.6874	False		False	0.0	319.7847001552582	46.0
3	ses-002	21	images_fmri/pancake/pancake_03s.jpg	seen	5283	441	3	None	1105.0	15724.0	3.0	seen-within	2	2	92.4	2.98	False	True	92.38146710395812	95.36440300941469	[['b', 93.2487518787384]]	2.0	seen	False	True	0.8487518787383976	2.982935905456543	1.0	20.0	1619630919.1544	False		False	0.0	22.34940004348755	5.0
3	ses-002	22	images_fmri/crown/crown_03s.jpg	seen	2235	187	3	None	449.0	6497.0	3.0	seen-within-between	3	2	96.87	2.98	True	True	96.84820103645325	99.83091616630554	[['b', 98.87504506111145]]	2.0	seen	False	True	2.0050450611114456	2.982715129852295	1.0	21.0	1619630923.6211	False		False	7.0	0.0	126.0
3	ses-002	23	images_fmri/egg_roll/egg_roll_03n.jpg	seen	2715	227	3	None	548.0	7952.0	3.0	seen-within-between	3	2	101.34	2.98	False	True	101.31456208229064	104.29880714416504	[['b', 102.94276595115662]]	2.0	seen	False	True	1.6027659511566128	2.9842450618743896	1.0	22.0	1619630928.0875	False		False	7.0	0.0	165.0
3	ses-002	24	images_fmri/powder/powder_03s.jpg	unseen	5919	494	3	None	1237.0	17592.0	3.0	unseen-between	1	2	105.81	2.98	False	True	105.79741406440736	108.76440501213074	[['y', 107.17280387878418]]	-2.0	unseen	False	True	1.3628038787841774	2.9669909477233887	1.0	23.0	1619630932.5703	False		False			
3	ses-002	25	images_fmri/curtain/curtain_03s.jpg	seen	2319	194	3	None	466.0	6757.0	3.0	seen-between-within	3	2	110.28	2.98	True	True	110.26401615142822	113.24735808372498	[['b', 111.54045701026917]]	2.0	seen	False	True	1.260457010269164	2.983341932296753	1.0	24.0	1619630937.0369	False		False	0.0	243.7940001487732	29.0
3	ses-002	26	images_fmri/bubble/bubble_03s.jpg	seen	1059	89	3	None	208.0	3131.0	3.0	seen-between-within	3	2	114.75	2.98	True	False	114.73117804527284	117.71390914916992	[['x', 115.88366603851318]]	2.0	seen	False	True	1.1336660385131836	2.9827311038970947	1.0	25.0	1619630941.5041	False		False	0.0	49.16600012779236	11.0
3	ses-002	27	images_fmri/dress/dress_03s.jpg	seen	2595	217	3	None	519.0	7529.0	3.0	seen-between	2	2	119.22	2.98	True	True	119.19792413711548	122.18044018745422	[['a', 120.95344591140747]]	-2.0	unseen	True	True	1.7334459114074718	2.982516050338745	1.0	26.0	1619630945.9708	False		False	7.0	0.0	210.0
3	ses-002	28	images_fmri/hotdog/hotdog_03s.jpg	seen	3843	321	3	None	806.0	11527.0	3.0	seen-between	2	2	123.69	2.98	False	True	123.66410899162292	126.647399187088	[['y', 124.94867086410522]]	-2.0	unseen	True	True	1.2586708641052269	2.983290195465088	1.0	27.0	1619630950.437	False		False	7.0	0.0	195.0
3	ses-002	29	images_fmri/compass/compass_03s.jpg	unseen	1947	163	3	None	393.0	5652.0	3.0	unseen-within	1	2	128.16	2.98	True	False	128.14688801765442	131.13021898269653	[['a', 129.67478394508362]]	-2.0	unseen	False	True	1.5147839450836216	2.9833309650421143	1.0	28.0	1619630954.9198	False		False			
3	ses-002	30	images_fmri/boot/boot_03s.jpg	unseen	855	72	3	None	170.0	2582.0	3.0	unseen-within	1	2	132.63	2.98	False	False	132.61379504203796	135.5967411994934	[['y', 133.76967787742615]]	-2.0	unseen	False	True	1.139677877426152	2.9829461574554443	1.0	29.0	1619630959.3867	False		False			
3	ses-002	31	images_fmri/towel_rack/towel_rack_03s.jpg	unseen	7899	659	3	None	1694.0	23900.0	3.0	unseen-within	1	2	137.1	2.98	False	False	137.08041214942932	140.06371998786926	[['y', 138.0194730758667]]	-2.0	unseen	False	True	0.9194730758667048	2.9833078384399414	1.0	30.0	1619630963.8533	False		False			
3	ses-002	32	images_fmri/bandage/bandage_03s.jpg	unseen	375	32	3	None	67.0	995.0	3.0	unseen-within	1	2	141.57	2.98	True	True	141.54704809188843	144.53023505210876	[['a', 142.7993860244751]]	-2.0	unseen	False	True	1.2293860244751045	2.983186960220337	1.0	31.0	1619630968.3199	False		False			
3	ses-002	33	images_fmri/car/car_03s.jpg	seen	1407	118	3	None	268.0	3942.0	3.0	seen-within	2	2	146.04	2.98	False	True	146.01359701156616	148.99671816825867	[['b', 147.4421739578247]]	2.0	seen	False	True	1.402173957824715	2.983121156692505	1.0	32.0	1619630972.7865	False		False	0.0	449.40549993515015	75.0
3	ses-002	34	images_fmri/bandage/bandage_03s.jpg	seen	375	32	3	None	67.0	995.0	3.0	seen-within	2	2	150.51	2.98	False	True	150.49636912345886	153.46610617637634	[['b', 151.51017093658447]]	2.0	seen	False	True	1.0001709365844818	2.9697370529174805	1.0	33.0	1619630977.2693	False		False	0.0	8.949399948120117	2.0
3	ses-002	35	images_fmri/sprinkler/sprinkler_03s.jpg	unseen	7107	593	3	None	1524.0	21543.0	3.0	unseen-within	1	2	154.98	2.98	True	False	154.96346998214722	157.94621109962463	[['a', 156.34222197532654]]	-2.0	unseen	False	True	1.3622219753265483	2.982741117477417	1.0	34.0	1619630981.7364	False		False			
3	ses-002	36	images_fmri/calculator/calculator_03s.jpg	seen	1251	105	3	None	241.0	3573.0	3.0	seen-within-between	3	2	159.45	2.98	True	False	159.4298131465912	162.4126901626587	[['a', 161.24712300300598], ['y', 161.79709601402283], ['x', 162.04672598838806]]	-2.0	unseen	True	True	1.7971230030059928	2.982877016067505	1.0	35.0	1619630986.2027	False		False	7.0	0.0	251.0
3	ses-002	37	images_fmri/jellyfish/jellyfish_03s.jpg	seen	4011	335	3	None	846.0	12093.0	3.0	seen-between	2	2	163.92	2.98	False	True	163.89665913581848	166.87973618507385	[['a', 166.18406200408936]]	1.0	seen	False	False	2.264062004089368	2.983077049255371	1.0	36.0	1619630990.6696	False		False	7.0	0.0	131.0
3	ses-002	38	images_fmri/peeler/peeler_03s.jpg	unseen	5451	455	3	None	1139.0	16207.0	3.0	unseen-within	1	2	168.39	2.98	False	True	168.3630530834198	171.3462381362915	[['y', 169.47104001045227]]	-2.0	unseen	False	True	1.0810400104522842	2.983185052871704	1.0	37.0	1619630995.136	False		False			
3	ses-002	39	images_fmri/refrigerator/refrigerator_03s.jpg	unseen	6207	518	3	None	1301.0	18519.0	3.0	unseen-between	1	2	172.86	2.98	False	True	172.84578800201416	175.81302618980408	[['y', 174.29438090324402]]	-2.0	unseen	False	True	1.434380903244005	2.967238187789917	1.0	38.0	1619630999.6187	False		False			
3	ses-002	40	images_fmri/soda_fountain/soda_fountain_03s.jpg	unseen	6951	580	3	None	1492.0	21115.0	3.0	unseen-between	1	2	177.32999999999996	2.98	True	False	177.31304812431335	180.29564118385315	[['a', 178.99435305595398]]	-2.0	unseen	False	True	1.6643530559540238	2.982593059539795	1.0	39.0	1619631004.0859	False		False			
3	ses-002	41	images_fmri/extinguisher/extinguisher_03s.jpg	seen	2799	234	3	None	564.0	8161.0	3.0	seen-within	2	2	181.8	2.98	False	False	181.77930998802185	184.7621681690216	[['y', 183.738018989563]]	-2.0	unseen	True	True	1.938018989562977	2.982858180999756	1.0	40.0	1619631008.5522	False		False	0.0	107.280699968338	24.0
3	ses-002	42	images_fmri/beet/beet_03s.jpg	unseen	555	47	3	None	115.0	1753.0	3.0	unseen-between	1	2	186.27	2.98	True	True	186.24585103988647	189.2287750244141	[['a', 189.0332019329071]]	-2.0	unseen	False	True	2.7632019329070943	2.982923984527588	1.0	41.0	1619631013.0187	False		False			
3	ses-002	43	images_fmri/coleslaw/coleslaw_03s.jpg	seen	1923	161	3	None	387.0	5568.0	3.0	seen-within	2	2	190.74	2.98	True	True	190.72874116897583	193.6956851482392	[['b', 191.65596890449524]]	2.0	seen	False	True	0.9159689044952302	2.9669439792633057	1.0	42.0	1619631017.5016	False		False	0.0	138.57949995994568	31.0
3	ses-002	44	images_fmri/forklift/forklift_03s.jpg	unseen	3111	260	3	None	636.0	9169.0	3.0	unseen-within	1	2	195.21	2.98	False	False	195.1952621936798	198.16226816177368	[['y', 196.37709093093872]]	-2.0	unseen	False	True	1.1670909309387127	2.967005968093872	1.0	43.0	1619631021.9682	False		False			
3	ses-002	45	images_fmri/chipmunk/chipmunk_03n.jpg	unseen	1731	145	3	None	335.0	4838.0	3.0	unseen-between	1	2	199.68	2.98	False	True	199.66217303276065	202.6457450389862	[['y', 201.9269769191742]]	-2.0	unseen	False	True	2.2469769191741875	2.983572006225586	1.0	44.0	1619631026.4351	False		False			
3	ses-002	46	images_fmri/hotdog/hotdog_03s.jpg	seen	3843	321	3	None	806.0	11527.0	3.0	seen-between-within	3	2	204.15	2.98	True	False	204.1337921619416	207.11809515953064	[['x', 205.23079705238342]]	2.0	seen	False	True	1.0807970523834172	2.984302997589112	1.0	45.0	1619631030.9067	False		False	0.0	80.46969985961914	18.0
3	ses-002	47	images_fmri/kale/kale_03s.jpg	seen	4059	339	3	None	861.0	12308.0	3.0	seen-within-between	3	2	208.62	2.98	True	False	208.6023089885712	211.5804870128632	[['x', 210.0958800315857]]	2.0	seen	False	True	1.4758800315856888	2.978178024291992	1.0	46.0	1619631035.3752	False		False	7.0	0.0	245.0
3	ses-002	48	images_fmri/dress/dress_03s.jpg	seen	2595	217	3	None	519.0	7529.0	3.0	seen-between-within	3	2	213.09	2.98	False	False	213.0618770122528	216.0452311038971	[['x', 213.9180018901825]]	2.0	seen	False	True	0.8280018901824917	2.983354091644287	1.0	47.0	1619631039.8348	False		False	0.0	93.864000082016	21.0
3	ses-002	49	images_fmri/tarp/tarp_03s.jpg	unseen	7563	631	3	None	1629.0	23000.0	3.0	unseen-within	1	2	217.56	2.98	True	True	217.5447781085968	220.5279610157013	[['a', 219.02998685836792]]	-2.0	unseen	False	True	1.4699868583679176	2.983182907104492	1.0	48.0	1619631044.3177	False		False			
3	ses-002	50	images_fmri/towel_rack/towel_rack_03s.jpg	seen	7899	659	3	None	1694.0	23900.0	3.0	seen-within	2	2	222.03	2.98	True	True	222.0117712020874	224.99463510513303	[['b', 223.1805260181427]]	2.0	seen	False	True	1.150526018142699	2.9828639030456543	1.0	49.0	1619631048.7847	False		False	0.0	84.93139982223511	19.0
3	ses-002	51	images_fmri/celery/celery_03s.jpg	seen	1515	127	3	None	292.0	4262.0	3.0	seen-between	2	2	226.5	2.98	False	True	226.47831416130063	229.46119213104248	[['y', 227.9170949459076]]	-2.0	unseen	True	True	1.4170949459075928	2.9828779697418213	1.0	50.0	1619631053.2512	False		False	7.0	0.0	129.0
3	ses-002	52	images_fmri/scone/scone_03s.jpg	seen	6519	544	3	None	1381.0	19611.0	3.0	seen-between	2	2	230.97	2.98	True	True	230.94510912895203	233.92817211151123	[['a', 232.59951090812683]]	-2.0	unseen	True	True	1.6295109081268322	2.983062982559204	1.0	51.0	1619631057.718	False		False	7.0	0.0	143.0
3	ses-002	53	images_fmri/doormat/doormat_03s.jpg	unseen	2535	212	3	None	512.0	7417.0	3.0	unseen-between	1	2	235.44	2.98	True	True	235.4114100933075	238.39453220367432	[['a', 236.59289407730103]]	-2.0	unseen	False	True	1.1528940773010277	2.9831221103668213	1.0	52.0	1619631062.1843	False		False			
3	ses-002	54	images_fmri/gravestone/gravestone_03s.jpg	seen	3447	288	3	None	711.0	10197.0	3.0	seen-between	2	2	239.91	2.98	False	False	239.8949010372162	242.8611001968384	[['y', 240.81870889663696]]	-2.0	unseen	True	True	0.9087088966369664	2.9661991596221924	1.0	53.0	1619631066.6678	False		False	7.0	0.0	162.0
3	ses-002	55	images_fmri/pear/pear_03s.jpg	unseen	5427	453	3	None	1134.0	16143.0	3.0	unseen-between	1	2	244.38	2.98	True	False	244.36120915412903	247.34406113624573	[['a', 245.52267289161682]]	-2.0	unseen	False	True	1.1426728916168258	2.982851982116699	1.0	54.0	1619631071.1341	False		False			
3	ses-002	56	images_fmri/ribbon/ribbon_03s.jpg	unseen	6267	523	3	None	1309.0	18633.0	3.0	unseen-within	1	2	248.85	2.98	False	False	248.82995200157168	251.8140470981598	[['y', 250.14961504936218]]	-2.0	unseen	False	True	1.2996150493621883	2.9840950965881348	1.0	55.0	1619631075.6029	False		False			
3	ses-002	57	images_fmri/scone/scone_03s.jpg	seen	6519	544	3	None	1381.0	19611.0	3.0	seen-between-within	3	2	253.32	2.98	True	True	253.2957410812378	256.2784550189972	[['b', 254.35142993927002]]	2.0	seen	False	True	1.0314299392700264	2.9827139377593994	1.0	56.0	1619631080.0686	False		False	0.0	22.350600004196167	5.0
3	ses-002	58	images_fmri/knife/knife_03s.jpg	seen	4155	347	3	None	880.0	12593.0	3.0	seen-within-between	3	2	257.79	2.98	False	True	257.77997612953186	260.74545407295227	[['b', 260.14542293548584]]	2.0	seen	False	True	2.3554229354858194	2.96547794342041	1.0	57.0	1619631084.5529	False		False	7.0	0.0	197.0
3	ses-002	59	images_fmri/racket/racket_03s.jpg	seen	6075	507	3	None	1271.0	18105.0	3.0	seen-between	2	2	262.26	2.98	True	False	262.2466661930084	265.22846007347107	[['b', 264.36444997787476]]	-1.0	unseen	True	False	2.104449977874765	2.9817938804626465	1.0	58.0	1619631089.0196	False		False	7.0	0.0	182.0
3	ses-002	60	images_fmri/emerald/emerald_03s.jpg	seen	2775	232	3	None	556.0	8057.0	3.0	seen-between	2	2	266.73	2.98	False	False	266.7134940624237	269.6942319869995	[['y', 268.11749291419983]]	-2.0	unseen	True	True	1.387492914199811	2.9807379245758057	1.0	59.0	1619631093.4864	False		False	7.0	0.0	143.0
3	ses-002	1	images_fmri/beetle/beetle_03s.jpg	unseen	567	48	3	None	116.0	1768.0	3.0	unseen-within	1	3	3.0	2.98	False	False	2.9855430126190186	5.964920997619629	[['y', 4.304140090942383]]	-2.0	unseen	False	True	1.3041400909423828	2.9793779850006104	1.0	0.0	1619632312.6433	False		False			
3	ses-002	2	images_fmri/boxer_shorts/boxer_shorts_03s.jpg	seen	903	76	3	None	183.0	2773.0	3.0	seen-between	2	3	7.47	2.98	True	False	7.447073221206665	10.42945122718811	[['a', 9.500497102737427]]	-2.0	unseen	True	True	2.030497102737427	2.9823780059814453	1.0	1.0	1619632317.1048	False		False	7.0	0.0	238.0
3	ses-002	3	images_fmri/cranberry/cranberry_03n.jpg	seen	2115	177	3	None	431.0	6220.0	3.0	seen-between	2	3	11.94	2.98	False	True	11.913254022598268	14.895987033843994	[['x', 13.860499143600464]]	-1.0	unseen	True	False	1.9204991436004644	2.9827330112457275	1.0	2.0	1619632321.571	False		False	7.0	0.0	206.0
3	ses-002	4	images_fmri/tarp/tarp_03s.jpg	seen	7563	631	3	None	1629.0	23000.0	3.0	seen-within	2	3	16.41	2.98	False	True	16.395954132080078	19.362951040267944	[['b', 17.55156111717224]]	2.0	seen	False	True	1.141561117172241	2.966996908187866	1.0	3.0	1619632326.0537	False		False	0.0	1281.7360000610352	15.0
3	ses-002	5	images_fmri/peanut/peanut_03s.jpg	unseen	5415	452	3	None	1132.0	16116.0	3.0	unseen-within	1	3	20.88	2.98	False	False	20.86325216293335	23.845978021621704	[['b', 22.679434061050415]]	-1.0	unseen	False	False	1.799434061050416	2.9827258586883545	1.0	4.0	1619632330.521	False		False			
3	ses-002	6	images_fmri/boot/boot_03s.jpg	seen	855	72	3	None	170.0	2582.0	3.0	seen-within	2	3	25.35	2.98	False	True	25.32946515083313	28.31282210350037	[['b', 26.356323957443237]]	2.0	seen	False	True	1.006323957443236	2.9833569526672363	1.0	5.0	1619632334.9872	False		False	0.0	1375.6005001068115	36.0
3	ses-002	7	images_fmri/wheelbarrow/wheelbarrow_03s.jpg	unseen	8427	703	3	None	1808.0	25466.0	3.0	unseen-between	1	3	29.82	2.98	True	True	29.79694604873657	32.78641700744629	[['a', 31.04520297050476]]	-2.0	unseen	False	True	1.2252029705047605	2.989470958709717	1.0	6.0	1619632339.4547	False		False			
3	ses-002	8	images_fmri/camera1/camera1_03s.jpg	unseen	1287	108	3	None	248.0	3668.0	3.0	unseen-within	1	3	34.29	2.98	False	False	34.2625470161438	37.24539017677307	[['b', 36.1586651802063]]	-1.0	unseen	False	False	1.8686651802063	2.9828431606292725	1.0	7.0	1619632343.9203	False		False			
3	ses-002	9	images_fmri/earwig/earwig_03s.jpg	seen	2679	224	3	None	542.0	7866.0	3.0	seen-within-between	3	3	38.76	2.98	True	False	38.74538016319275	41.71219420433045	[['x', 39.97927713394165]]	2.0	seen	False	True	1.2192771339416524	2.966814041137696	1.0	8.0	1619632348.4031	False		False	7.0	0.0	181.0
3	ses-002	10	images_fmri/tweezers/tweezers_03s.jpg	seen	8079	674	3	None	1740.0	24524.0	3.0	seen-between-within	3	3	43.23	2.98	True	True	43.21259808540344	46.195226192474365	[['b', 44.207618951797485]]	2.0	seen	False	True	0.9776189517974884	2.982628107070923	1.0	9.0	1619632352.8703	False		False	0.0	1514.1806001663208	67.0
3	ses-002	11	images_fmri/forklift/forklift_03s.jpg	seen	3111	260	3	None	636.0	9169.0	3.0	seen-within	2	3	47.7	2.98	False	True	47.67890119552612	50.66205716133118	[['b', 48.47857999801636]]	2.0	seen	False	True	0.7785799980163546	2.9831559658050537	1.0	10.0	1619632357.3366	False		False	0.0	1335.3684000968933	27.0
3	ses-002	12	images_fmri/boa/boa_03s.jpg	unseen	783	66	3	None	151.0	2302.0	3.0	unseen-between	1	3	52.17	2.98	True	True	52.14568614959717	55.12836909294128	[['a', 53.44922399520874]]	-2.0	unseen	False	True	1.2792239952087383	2.982682943344116	1.0	11.0	1619632361.8034	False		False			
3	ses-002	13	images_fmri/ring/ring_03s.jpg	seen	6303	526	3	None	1314.0	18699.0	3.0	seen-between	2	3	56.64	2.98	False	True	56.61205506324768	59.59484720230103	[['x', 58.76390504837036]]	-1.0	unseen	True	False	2.1239050483703608	2.9827921390533447	1.0	12.0	1619632366.2698	False		False	7.0	0.0	209.0
3	ses-002	14	images_fmri/aircraft_carrier/aircraft_carrier_03s.jpg	unseen	27	3	3	None	10.0	129.0	3.0	unseen-between	1	3	61.11	2.98	False	False	61.09490203857422	64.06193423271179	[['y', 62.36146116256714]]	-2.0	unseen	False	True	1.2514611625671392	2.967032194137573	1.0	13.0	1619632370.7526	False		False			
3	ses-002	15	images_fmri/koala/koala_03s.jpg	seen	4179	349	3	None	885.0	12668.0	3.0	seen-within-between	3	3	65.58	2.98	False	True	65.56185913085938	68.5447690486908	[['a', 67.34602618217468]]	1.0	seen	False	False	1.7660261821746843	2.982909917831421	1.0	14.0	1619632375.2196	False		False	7.0	0.0	180.0
3	ses-002	16	images_fmri/breadbox/breadbox_03s.jpg	unseen	987	83	3	None	196.0	2968.0	3.0	unseen-within	1	3	70.05	2.98	True	False	70.02838516235352	73.01128816604614	[['a', 71.9833710193634]]	-2.0	unseen	False	True	1.9333710193634064	2.982903003692627	1.0	15.0	1619632379.6861	False		False			
3	ses-002	17	images_fmri/shower/shower_03s.jpg	unseen	6711	560	3	None	1434.0	20329.0	3.0	unseen-within	1	3	74.52	2.98	True	False	74.49514722824097	77.47864818572998	[['a', 76.59817814826965]]	-2.0	unseen	False	True	2.0781781482696573	2.9835009574890137	1.0	16.0	1619632384.1529	False		False			
3	ses-002	18	images_fmri/cranberry/cranberry_03n.jpg	seen	2115	177	3	None	431.0	6220.0	3.0	seen-between-within	3	3	78.99	2.98	False	True	78.98039102554321	81.95206212997437	[['b', 80.16376399993896]]	2.0	seen	False	True	1.17376399993897	2.9716711044311523	1.0	17.0	1619632388.6381	False		False	0.0	67.0670998096466	15.0
3	ses-002	19	images_fmri/sword/sword_03s.jpg	seen	7419	619	3	None	1603.0	22646.0	3.0	seen-between	2	3	83.46	2.98	False	False	83.44745421409607	86.43143820762634	[['a', 85.7361090183258]]	1.0	seen	False	False	2.276109018325812	2.983983993530273	1.0	18.0	1619632393.1052	False		False	7.0	0.0	279.0
3	ses-002	20	images_fmri/hedge/hedge_03s.jpg	seen	3711	310	3	None	774.0	11073.0	3.0	seen-between-within	3	3	87.92999999999998	2.98	True	False	87.9113540649414	90.89416313171388	[['x', 89.31520104408264]]	2.0	seen	False	True	1.3852010440826632	2.982809066772461	1.0	19.0	1619632397.5691	False		False	0.0	1869.721799850464	121.0
3	ses-002	21	images_fmri/melon/melon_03s.jpg	unseen	4743	396	3	None	995.0	14165.0	3.0	unseen-between	1	3	92.4	2.98	True	True	92.37817120552064	95.36078119277954	[['a', 93.71381211280823]]	-2.0	unseen	False	True	1.313812112808222	2.982609987258911	1.0	20.0	1619632402.0359	False		False			
3	ses-002	22	images_fmri/meat/meat_03s.jpg	seen	4707	393	3	None	988.0	14073.0	3.0	seen-within	2	3	96.87	2.98	False	False	96.84480619430542	99.82782101631165	[['x', 97.86239314079285]]	2.0	seen	False	True	0.992393140792842	2.9830148220062256	1.0	21.0	1619632406.5026	False		False	0.0	1780.3079998493197	101.0
3	ses-002	23	images_fmri/ferret/ferret_03s.jpg	unseen	2883	241	3	None	579.0	8374.0	3.0	unseen-within	1	3	101.34	2.98	False	True	101.327299118042	104.31057715415956	[['y', 102.40496015548706]]	-2.0	unseen	False	True	1.0649601554870571	2.9832780361175537	1.0	22.0	1619632410.985	False		False			
3	ses-002	24	images_fmri/kimono/kimono_03s.jpg	seen	4131	345	3	None	874.0	12509.0	3.0	seen-between	2	3	105.81	2.98	False	True	105.79385018348694	108.77713203430176	[['y', 107.98632407188416]]	-2.0	unseen	True	True	2.176324071884153	2.98328185081482	1.0	23.0	1619632415.4516	False		False	7.0	0.0	185.0
3	ses-002	25	images_fmri/blackberry/blackberry_03s.jpg	seen	687	58	3	None	136.0	2078.0	3.0	seen-between-within	3	3	110.28	2.98	False	True	110.26087522506714	113.24375104904176	[['y', 112.98110318183899]]	-2.0	unseen	True	True	2.701103181838988	2.9828758239746094	1.0	24.0	1619632419.9186	False		False	0.0	1941.236999988556	137.0
3	ses-002	26	images_fmri/gravel/gravel_03s.jpg	unseen	3435	287	3	None	710.0	10185.0	3.0	unseen-within	1	3	114.75	2.98	False	True	114.7274580001831	117.71024417877196	[['y', 116.46838808059692]]	-2.0	unseen	False	True	1.7183880805969238	2.982786178588867	1.0	25.0	1619632424.3852	False		False			
3	ses-002	27	images_fmri/ring/ring_03s.jpg	seen	6303	526	3	None	1314.0	18699.0	3.0	seen-between-within	3	3	119.22	2.98	False	True	119.19407510757446	122.17677116394044	[['b', 121.38691306114197]]	2.0	seen	False	True	2.166913061141969	2.982696056365967	1.0	26.0	1619632428.8518	False		False	0.0	62.58200001716614	14.0
3	ses-002	28	images_fmri/cinnamon/cinnamon_03s.jpg	seen	1767	148	3	None	349.0	5049.0	3.0	seen-within-between	3	3	123.69	2.98	True	True	123.67684507369997	126.6440680027008	[['b', 125.94013094902039]]	2.0	seen	False	True	2.250130949020388	2.9672229290008545	1.0	27.0	1619632433.3346	False		False	7.0	0.0	225.0
