subject	session	TrialNumber	image_path	condition	image_nr	category_nr	exemplar_nr	test_image_nr	things_category_nr	things_image_nr	things_exemplar_nr	subcondition	repetition	run	onset	duration	response_mapping_flip_h	response_mapping_flip_v	onset_flip	offset_flip	keypresses	response	response_txt	error	response_confidence	response_time	duration_flip	ran	order	session_trial_time	atypical	atypical_log	exclude_session	delay_days	delay_seconds	trials_since_lastrep
02	ses-029	1	images_fmri/mop/mop_01b.jpg	seen	4873	407	1	None	1020.0	14528.0	1.0	seen-within-between	3	5	3.0	2.98	True	True	2.9993084620218724	5.965810795081779	[['b', 4.2956965051125735]]	2.0	seen	False	True	1.2956965051125735	2.966502333059907	1.0	0.0	1353791.8281	False		False	7.0	0.0	542.0
02	ses-029	2	images_fmri/grape/grape_01b.jpg	seen	3385	283	1	None	703.0	10068.0	1.0	seen-between-within	3	5	7.47	2.98	True	False	7.466388168046251	10.449245487106964	[['x', 8.486746613169089]]	2.0	seen	False	True	1.0167466131690892	2.982857319060713	1.0	1.0	1353796.2952	False		False	0.0	966.6202000000048	154.0
02	ses-029	3	images_fmri/dolly/dolly_01s.jpg	seen	2485	208	1	None	502.0	7248.0	1.0	seen-between	2	5	11.94	2.98	False	False	11.932857900159432	14.91579339816235	[['a', 13.427626874065027]]	1.0	seen	False	False	1.4876268740650271	2.982935498002917	1.0	2.0	1353800.7617	False		False	7.0	0.0	315.0
02	ses-029	4	images_fmri/sickle/sickle_01b.jpg	seen	6757	564	1	None	1442.0	20444.0	1.0	seen-within	2	5	16.41	2.98	False	False	16.39956271299161	19.38287918898277	[['x', 17.463672483107075]]	2.0	seen	False	True	1.053672483107075	2.98331647599116	1.0	3.0	1353805.2284	False		False	0.0	625.7981999998447	98.0
02	ses-029	5	images_fmri/earring/earring_01b.jpg	seen	2665	223	1	None	541.0	7848.0	1.0	seen-between-within	3	5	20.88	2.98	False	False	20.86599103710614	23.84942940901965	[['x', 21.834719776175916]]	2.0	seen	False	True	0.9547197761759172	2.983438371913508	1.0	4.0	1353809.6948	False		False	0.0	572.1478999999817	86.0
02	ses-029	6	images_fmri/stethoscope/stethoscope_01b.jpg	unseen	7225	603	1	None	1551.0	21904.0	1.0	unseen-within	1	5	25.35	2.98	False	False	25.34884288394824	28.315429677953944	[['a', 26.732725139008835]]	1.0	seen	True	False	1.3827251390088335	2.966586794005707	1.0	5.0	1353814.1776	False		False			
02	ses-029	7	images_fmri/asparagus/asparagus_01b.jpg	unseen	229	20	1	None	43.0	592.0	1.0	unseen-between	1	5	29.82	2.98	True	True	29.815858085174117	32.80021709413268	[['b', 31.278690692968667]]	2.0	seen	True	True	1.4586906929686665	2.984359008958563	1.0	6.0	1353818.6447	False		False			
02	ses-029	8	images_fmri/golf_cart/golf_cart_01b.jpg	seen	3313	277	1	None	690.0	9871.0	1.0	seen-within	2	5	34.29	2.98	False	True	34.284578904975206	37.26803127117455	[['b', 35.21693393215537]]	2.0	seen	False	True	0.9269339321553716	2.9834523661993444	1.0	7.0	1353823.1134	False		False	0.0	746.4978000000119	125.0
02	ses-029	9	images_fmri/inhaler/inhaler_01b.jpg	seen	3937	329	1	None	829.0	11852.0	1.0	seen-within-between	3	5	38.76	2.98	False	True	38.75442485394888	41.735179445007816	[['b', 40.62224048608914]]	2.0	seen	False	True	1.8622404860891424	2.98075459105894	1.0	8.0	1353827.5832	False		False	7.0	0.0	415.0
02	ses-029	10	images_fmri/groundhog/groundhog_01b.jpg	seen	3481	291	1	None	719.0	10299.0	1.0	seen-between-within	3	5	43.23	2.98	True	False	43.22245655814186	46.20200520614162	[['x', 44.21868295315653]]	2.0	seen	False	True	0.988682953156534	2.9795486479997635	1.0	9.0	1353832.0513	False		False	0.0	1284.3682999999728	204.0
02	ses-029	11	images_fmri/jar/jar_01s.jpg	unseen	3985	333	1	None	841.0	12020.0	1.0	unseen-between	1	5	47.7	2.98	False	True	47.7057853389997	50.67141227517277	[['b', 48.735546260140836]]	2.0	seen	True	True	1.0355462601408334	2.9656269361730665	1.0	10.0	1353836.5346	False		False			
02	ses-029	12	images_fmri/pocket/pocket_01b.jpg	unseen	5749	480	1	None	1206.0	17131.0	1.0	unseen-within	1	5	52.17	2.98	True	False	52.1697360011749	55.15113772405312	[['b', 53.7996072510723]]	-1.0	unseen	False	False	1.6296072510723008	2.9814017228782177	1.0	11.0	1353840.9985	False		False			
02	ses-029	13	images_fmri/pom-pom/pom-pom_01b.jpg	seen	5797	484	1	None	1219.0	17341.0	1.0	seen-between-within	3	5	56.64	2.98	True	True	56.63899537711404	59.621272650081664	[['b', 57.545513650169596]]	2.0	seen	False	True	0.9055136501695956	2.9822772729676217	1.0	12.0	1353845.4678	False		False	0.0	746.498399999924	125.0
02	ses-029	14	images_fmri/defibrillator/defibrillator_01b.jpg	seen	2365	198	1	None	478.0	6911.0	1.0	seen-within	2	5	61.11	2.98	True	True	61.10433356417343	64.08896048204042	[['b', 62.165445626014844]]	2.0	seen	False	True	1.0554456260148442	2.98462691786699	1.0	13.0	1353849.9331	False		False	0.0	322.0089000000153	51.0
02	ses-029	15	images_fmri/broom/broom_01b.jpg	seen	1021	86	1	None	204.0	3074.0	1.0	seen-between	2	5	65.58	2.98	False	True	65.58611423498951	68.54967003711499	[['x', 66.93975768005475]]	-1.0	unseen	True	False	1.3597576800547555	2.963555802125484	1.0	14.0	1353854.4149	False		False	7.0	0.0	430.0
02	ses-029	16	images_fmri/trashcan/trashcan_01b.jpg	unseen	7945	663	1	None	1705.0	24046.0	1.0	unseen-within	1	5	70.05	2.98	False	True	70.05272565502673	73.01623968197964	[['x', 71.43780555017292]]	-1.0	unseen	False	False	1.3878055501729278	2.9635140269529074	1.0	15.0	1353858.8815	False		False			
02	ses-029	17	images_fmri/tongue/tongue_01s.jpg	unseen	7813	652	1	None	1676.0	23654.0	1.0	unseen-within	1	5	74.52	2.98	False	False	74.51725667715073	77.499756812118	[['b', 76.6625654019881]]	-1.0	unseen	False	False	2.142565401988108	2.9825001349672675	1.0	16.0	1353863.3461	False		False			
02	ses-029	18	images_fmri/meat/meat_01b.jpg	unseen	4705	393	1	None	988.0	14071.0	1.0	unseen-between	1	5	78.99	2.98	False	False	78.98807775811292	81.96765159303322	[['b', 80.54007670213468]]	-1.0	unseen	False	False	1.5500767021346888	2.979573834920302	1.0	17.0	1353867.8169	False		False			
02	ses-029	19	images_fmri/polaroid/polaroid_01b.jpg	seen	5785	483	1	None	1213.0	17241.0	1.0	seen-within-between	3	5	83.46	2.98	True	False	83.45356182311662	86.43337351595983	[['b', 84.87928262515925]]	-1.0	unseen	True	False	1.419282625159255	2.9798116928432137	1.0	18.0	1353872.2824	False		False	7.0	0.0	448.0
02	ses-029	20	images_fmri/tiger/tiger_01b.jpg	seen	7717	644	1	None	1660.0	23427.0	1.0	seen-within-between	3	5	87.92999999999998	2.98	False	False	87.93654541205615	90.90451651602052	[['a', 89.00643591303378]]	1.0	seen	False	False	1.076435913033805	2.967971103964373	1.0	19.0	1353876.7654	False		False	7.0	0.0	261.0
02	ses-029	21	images_fmri/taillight/taillight_01b.jpg	seen	7537	629	1	None	1618.0	22839.0	1.0	seen-within-between	3	5	92.4	2.98	True	False	92.4029460111633	95.38440785114652	[['y', 93.75825134012848]]	1.0	seen	False	False	1.3582513401284757	2.98146183998324	1.0	20.0	1353881.2318	False		False	7.0	0.0	583.0
02	ses-029	22	images_fmri/melon/melon_01b.jpg	unseen	4741	396	1	None	995.0	14163.0	1.0	unseen-between	1	5	96.87	2.98	False	False	96.87043569097295	99.85088613512926	[['b', 99.79814437613823]]	-1.0	unseen	False	False	2.9281443761382207	2.980450444156304	1.0	21.0	1353885.6992	False		False			
02	ses-029	23	images_fmri/mitten/mitten_01b.jpg	unseen	4837	404	1	None	1009.0	14378.0	1.0	unseen-within	1	5	101.34	2.98	True	False	101.33309758803809	104.3201483981684	[['b', 102.40144022996537]]	-1.0	unseen	False	False	1.0614402299653705	2.987050810130313	1.0	22.0	1353890.1619	False		False			
02	ses-029	24	images_fmri/stethoscope/stethoscope_01b.jpg	seen	7225	603	1	None	1551.0	21904.0	1.0	seen-within	2	5	105.81	2.98	True	True	105.7996481009759	108.7875727780629	[['b', 106.84690250409767]]	2.0	seen	False	True	1.036902504097668	2.987924677086994	1.0	23.0	1353894.6285	False		False	0.0	80.45090000005439	18.0
02	ses-029	25	images_fmri/tumbleweed/tumbleweed_01b.jpg	seen	8041	671	1	None	1728.0	24353.0	1.0	seen-between	2	5	110.28	2.98	False	True	110.28640435705891	113.24900207202882	[['a', 111.72434476297349]]	1.0	seen	False	False	1.4443447629734862	2.9625977149698883	1.0	24.0	1353899.1152	False		False	7.0	0.0	287.0
02	ses-029	26	images_fmri/broom/broom_01b.jpg	seen	1021	86	1	None	204.0	3074.0	1.0	seen-between-within	3	5	114.75	2.98	False	False	114.7536966779735	117.7357139980886	[['x', 115.64548374316655]]	2.0	seen	False	True	0.895483743166551	2.982017320115119	1.0	25.0	1353903.5825	False		False	0.0	49.16760000004433	11.0
02	ses-029	27	images_fmri/dolly/dolly_01s.jpg	seen	2485	208	1	None	502.0	7248.0	1.0	seen-between-within	3	5	119.22	2.98	True	True	119.22033177898264	122.20222887699492	[['b', 120.14626029809006]]	2.0	seen	False	True	0.9262602980900568	2.9818970980122685	1.0	26.0	1353908.0491	False		False	0.0	107.28740000003017	24.0
02	ses-029	28	images_fmri/tomato/tomato_01b.jpg	seen	7789	650	1	None	1673.0	23614.0	1.0	seen-between	2	5	123.69	2.98	True	False	123.68726012506522	126.66561278817244	[['x', 125.33451238996349]]	2.0	seen	False	True	1.644512389963495	2.9783526631072164	1.0	27.0	1353912.5161	False		False	7.0	0.0	296.0
02	ses-029	29	images_fmri/tumbleweed/tumbleweed_01b.jpg	seen	8041	671	1	None	1728.0	24353.0	1.0	seen-between-within	3	5	128.16	2.98	True	False	128.148394521093	131.13773982413113	[['x', 129.02040213695727]]	2.0	seen	False	True	0.8604021369572763	2.989345303038135	1.0	28.0	1353916.9772	False		False	0.0	17.86200000019744	4.0
02	ses-029	30	images_fmri/toilet/toilet_01b.jpg	seen	7765	648	1	None	1671.0	23580.0	1.0	seen-between-within	3	5	132.63	2.98	False	True	132.63458081916906	135.59910637699068	[['b', 133.60472200904042]]	2.0	seen	False	True	0.9747220090404198	2.9645255578216165	1.0	29.0	1353921.4634	False		False	0.0	460.58869999996386	82.0
02	ses-029	31	images_fmri/mouse1/mouse1_01b.jpg	unseen	4933	412	1	None	1027.0	14632.0	1.0	unseen-between	1	5	137.1	2.98	True	False	137.1024305720348	140.0825844190549	[['b', 138.70512507506646]]	-1.0	unseen	False	False	1.6051250750664678	2.9801538470201194	1.0	30.0	1353925.9312	False		False			
02	ses-029	32	images_fmri/spinach/spinach_01b.jpg	unseen	7069	590	1	None	1516.0	21432.0	1.0	unseen-between	1	5	141.57	2.98	False	True	141.5703273830004	144.54831168195233	[['a', 143.3444599090144]]	1.0	seen	True	False	1.7744599090144106	2.977984298951924	1.0	31.0	1353930.3991	False		False			
02	ses-029	33	images_fmri/crutch/crutch_01b.jpg	seen	2245	188	1	None	453.0	6543.0	1.0	seen-within	2	5	146.04	2.98	True	True	146.036832252983	149.01890296605416	[['b', 146.95807135896757]]	2.0	seen	False	True	0.9180713589675804	2.982070713071153	1.0	32.0	1353934.8656	False		False	0.0	971.0932999998331	155.0
02	ses-029	34	images_fmri/boa/boa_01s.jpg	seen	781	66	1	None	151.0	2300.0	1.0	seen-between	2	5	150.51	2.98	False	False	150.50306626409292	153.48126829997636	[['a', 152.04379966598935]]	1.0	seen	False	False	1.5337996659893631	2.9782020358834416	1.0	33.0	1353939.3319	False		False	7.0	0.0	316.0
02	ses-029	35	images_fmri/t-shirt/t-shirt_01b.jpg	seen	7453	622	1	None	1607.0	22696.0	1.0	seen-between	2	5	154.98	2.98	True	False	154.98544761701487	157.9476405591704	[['y', 157.16441863798536]]	1.0	seen	False	False	2.184418637985374	2.962192942155525	1.0	34.0	1353943.8143	False		False	7.0	0.0	531.0
02	ses-029	36	images_fmri/boa/boa_01s.jpg	seen	781	66	1	None	151.0	2300.0	1.0	seen-between-within	3	5	159.45	2.98	False	False	159.45163081516512	162.4349986249581	[['x', 160.29223210015334]]	2.0	seen	False	True	0.8422321001533533	2.983367809792981	1.0	35.0	1353948.2804	False		False	0.0	8.948499999940395	2.0
02	ses-029	37	images_fmri/mitten/mitten_01b.jpg	seen	4837	404	1	None	1009.0	14378.0	1.0	seen-within	2	5	163.92	2.98	True	False	163.91930467495695	166.8986443229951	[['x', 164.84971849108115]]	2.0	seen	False	True	0.9297184910811608	2.979339648038149	1.0	36.0	1353952.7481	False		False	0.0	62.586200000019744	14.0
02	ses-029	38	images_fmri/ping-pong_table/ping-pong_table_01b.jpg	unseen	5629	470	1	None	1185.0	16853.0	1.0	unseen-between	1	5	168.39	2.98	True	True	168.38142561912537	171.36396381515078	[['b', 169.70500965113752]]	2.0	seen	True	True	1.3150096511375295	2.9825381960254163	1.0	37.0	1353957.2102	False		False			
02	ses-029	39	images_fmri/shaving_cream/shaving_cream_01b.jpg	seen	6613	552	1	None	1411.0	20024.0	1.0	seen-within-between	3	5	172.86	2.98	True	True	172.85163457598537	175.83079357398674	[['b', 174.52279901015572]]	2.0	seen	False	True	1.6627990101557089	2.979158998001367	1.0	38.0	1353961.6804	False		False	7.0	0.0	582.0
02	ses-029	40	images_fmri/match/match_01b.jpg	seen	4693	392	1	None	984.0	14020.0	1.0	seen-between-within	3	5	177.32999999999996	2.98	False	True	177.33437536796555	180.29753669304773	[['b', 178.63505587913096]]	2.0	seen	False	True	1.3050558791310038	2.963161325082183	1.0	39.0	1353966.1632	False		False	0.0	1006.8582999999635	163.0
02	ses-029	41	images_fmri/hammock/hammock_01b.jpg	seen	3601	301	1	None	743.0	10643.0	1.0	seen-within	2	5	181.8	2.98	False	True	181.80236671795137	184.7818079600111	[['b', 182.74667392414995]]	2.0	seen	False	True	0.946673924149934	2.9794412420596927	1.0	40.0	1353970.6312	False		False	0.0	482.9403999999631	87.0
02	ses-029	42	images_fmri/squirrel/squirrel_01b.jpg	seen	7129	595	1	None	1530.0	21619.0	1.0	seen-within-between	3	5	186.27	2.98	True	False	186.26514271716587	189.25151191302572	[['x', 187.40059816697612]]	2.0	seen	False	True	1.1305981669761138	2.9863691958598797	1.0	41.0	1353975.0939	False		False	7.0	0.0	284.0
02	ses-029	43	images_fmri/cabbage/cabbage_01b.jpg	seen	1201	101	1	None	233.0	3467.0	1.0	seen-within	2	5	190.74	2.98	True	False	190.73325983108955	193.716329804156	[['x', 191.78770932904445]]	2.0	seen	False	True	1.0477093290444373	2.983069973066449	1.0	42.0	1353979.5621	False		False	0.0	898.4772000000812	159.0
02	ses-029	44	images_fmri/saltshaker/saltshaker_01b.jpg	unseen	6421	536	1	None	1351.0	19205.0	1.0	unseen-between	1	5	195.21	2.98	True	True	195.2170535181649	198.1808712759521	[['x', 196.45188734703697]]	-1.0	unseen	False	False	1.241887347036965	2.963817757787183	1.0	43.0	1353984.0459	False		False			
02	ses-029	45	images_fmri/highlighter/highlighter_01b.jpg	unseen	3757	314	1	None	779.0	11148.0	1.0	unseen-between	1	5	199.68	2.98	True	False	199.68537027505224	202.64989603194408	[['b', 201.10597156803124]]	-1.0	unseen	False	False	1.4259715680312297	2.964525756891817	1.0	44.0	1353988.5142	False		False			
02	ses-029	46	images_fmri/tongue/tongue_01s.jpg	seen	7813	652	1	None	1676.0	23654.0	1.0	seen-within	2	5	204.15	2.98	False	True	204.15055776503868	207.1327528830152	[['b', 205.06775115896016]]	2.0	seen	False	True	0.917751158960158	2.9821951179765165	1.0	45.0	1353992.9794	False		False	0.0	129.6333000001032	29.0
02	ses-029	47	images_fmri/anchor/anchor_01b.jpg	unseen	97	9	1	None	22.0	306.0	1.0	unseen-between	1	5	208.62	2.98	False	False	208.6173094799742	211.59727938403373	[['x', 210.0962706960272]]	2.0	seen	True	True	1.4762706960271998	2.979969904059544	1.0	46.0	1353997.4461	False		False			
02	ses-029	48	images_fmri/treadmill/treadmill_01b.jpg	seen	7969	665	1	None	1707.0	24072.0	1.0	seen-between	2	5	213.09	2.98	False	True	213.08390615717508	216.0635756989941	[['x', 214.75955589907244]]	-1.0	unseen	True	False	1.669555899072435	2.979669541819021	1.0	47.0	1354001.9127	False		False	7.0	0.0	345.0
02	ses-029	49	images_fmri/suspenders/suspenders_01b.jpg	unseen	7393	617	1	None	1590.0	22454.0	1.0	unseen-within	1	5	217.56	2.98	True	True	217.56571674114093	220.5293088620529	[['y', 219.28270230302587]]	1.0	seen	True	False	1.7227023030258692	2.963592120911926	1.0	48.0	1354006.3945	False		False			
02	ses-029	50	images_fmri/rabbit/rabbit_01b.jpg	seen	6049	505	1	None	1266.0	18037.0	1.0	seen-within-between	3	5	222.03	2.98	False	False	222.0328863770701	225.01547918096185	[['a', 225.0182187219616]]	1.0	seen	False	False	2.988218721961601	2.982592803891748	1.0	49.0	1354010.8617	False		False	7.0	0.0	410.0
02	ses-029	51	images_fmri/treadmill/treadmill_01b.jpg	seen	7969	665	1	None	1707.0	24072.0	1.0	seen-between-within	3	5	226.5	2.98	False	False	226.49577318900265	229.48057747911665	[['x', 227.42551190312952]]	2.0	seen	False	True	0.925511903129518	2.98480429011397	1.0	50.0	1354015.3246	False		False	0.0	13.411899999948218	3.0
02	ses-029	52	images_fmri/t-shirt/t-shirt_01b.jpg	seen	7453	622	1	None	1607.0	22696.0	1.0	seen-between-within	3	5	230.97	2.98	True	True	230.96839953702877	233.9464019651059	[['b', 232.09790932713076]]	2.0	seen	False	True	1.127909327130766	2.9780024280771613	1.0	51.0	1354019.7972	False		False	0.0	75.9828999999445	17.0
02	ses-029	53	images_fmri/gravestone/gravestone_01b.jpg	unseen	3445	288	1	None	711.0	10195.0	1.0	unseen-between	1	5	235.44	2.98	True	False	235.43240641709417	238.41267857700583	[['y', 237.19509190903045]]	1.0	seen	True	False	1.7550919090304546	2.980272159911692	1.0	52.0	1354024.2612	False		False			
02	ses-029	54	images_fmri/sushi/sushi_01b.jpg	unseen	7381	616	1	None	1589.0	22436.0	1.0	unseen-within	1	5	239.91	2.98	True	True	239.91580227203667	242.88046986004335	[['y', 242.176279097097]]	1.0	seen	True	False	2.266279097096998	2.964667588006705	1.0	53.0	1354028.7446	False		False			
02	ses-029	55	images_fmri/sushi/sushi_01b.jpg	seen	7381	616	1	None	1589.0	22436.0	1.0	seen-within	2	5	244.38	2.98	False	True	244.3824030640535	247.365918738069	[['b', 245.28194745606743]]	2.0	seen	False	True	0.9019474560674324	2.983515674015507	1.0	54.0	1354033.2112	False		False	0.0	4.466599999926984	1.0
02	ses-029	56	images_fmri/carousel/carousel_01b.jpg	unseen	1429	120	1	None	276.0	4047.0	1.0	unseen-within	1	5	248.85	2.98	False	True	248.8498078279663	251.8308619360905	[['a', 250.30739736696705]]	1.0	seen	True	False	1.457397366967058	2.9810541081242263	1.0	55.0	1354037.6786	False		False			
02	ses-029	57	images_fmri/beer/beer_01s.jpg	seen	541	46	1	None	114.0	1735.0	1.0	seen-between	2	5	253.32	2.98	True	True	253.3145100630354	256.29514067806304	[['y', 255.13222322100773]]	1.0	seen	False	False	1.8122232210077411	2.9806306150276214	1.0	56.0	1354042.1433	False		False	7.0	0.0	561.0
02	ses-029	58	images_fmri/mascara/mascara_01b.jpg	unseen	4657	389	1	None	979.0	13947.0	1.0	unseen-between	1	5	257.79	2.98	False	False	257.78350083716214	260.7617277971003	[['b', 259.29365033097565]]	-1.0	unseen	False	False	1.5036503309756313	2.9782269599381834	1.0	57.0	1354046.6123	False		False			
02	ses-029	59	images_fmri/trashcan/trashcan_01b.jpg	seen	7945	663	1	None	1705.0	24046.0	1.0	seen-within	2	5	262.26	2.98	False	True	262.2644386291504	265.23232953902334	[['b', 263.110182186123]]	2.0	seen	False	True	0.8501821861229928	2.967890909872949	1.0	58.0	1354051.0932	False		False	0.0	192.2117000001017	43.0
02	ses-029	60	images_fmri/stalagmite/stalagmite_01b.jpg	seen	7153	597	1	None	1535.0	21690.0	1.0	seen-within	2	5	266.73	2.98	True	True	266.73215560009703	269.7151060400065	[['b', 267.76598549913615]]	2.0	seen	False	True	1.0359854991361317	2.982950439909473	1.0	59.0	1354055.5610	False		False	0.0	549.9862999999896	102.0
