subject	session	TrialNumber	image_path	condition	image_nr	category_nr	exemplar_nr	test_image_nr	things_category_nr	things_image_nr	things_exemplar_nr	subcondition	repetition	run	onset	duration	response_mapping_flip_h	response_mapping_flip_v	onset_flip	offset_flip	keypresses	response	response_txt	error	response_confidence	response_time	duration_flip	ran	order	session_trial_time	atypical	atypical_log	exclude_session	delay_days	delay_seconds	trials_since_lastrep
02	ses-029	1	images_fmri/grits/grits_01s.jpg	unseen	3469	290	1	None	718.0	10287.0	1.0	unseen-between	1	3	3.0	2.98	True	False	3.001015415182337	5.96624019718729	[['b', 4.638140445109457]]	-1.0	unseen	False	False	1.6381404451094568	2.9652247820049524	1.0	0.0	1353067.6819	False		False			
02	ses-029	2	images_fmri/bench/bench_01b.jpg	seen	589	50	1	None	121.0	1843.0	1.0	seen-within-between	3	3	7.47	2.98	False	True	7.4681331589818	10.449571465142071	[['a', 8.895333116175607]]	1.0	seen	False	False	1.425333116175607	2.981438306160271	1.0	1.0	1353072.1490	False		False	7.0	0.0	139.0
02	ses-029	3	images_fmri/golf_cart/golf_cart_01b.jpg	unseen	3313	277	1	None	690.0	9871.0	1.0	unseen-within	1	3	11.94	2.98	True	True	11.934709634166213	14.916922100121155	[['y', 13.60706776403822]]	1.0	seen	True	False	1.6670677640382203	2.9822124659549445	1.0	2.0	1353076.6156	False		False			
02	ses-029	4	images_fmri/cabbage/cabbage_01b.jpg	unseen	1201	101	1	None	233.0	3467.0	1.0	unseen-within	1	3	16.41	2.98	True	False	16.403976747998968	19.3834681911394	[['b', 17.814048652071506]]	-1.0	unseen	False	False	1.4040486520715056	2.979491443140432	1.0	3.0	1353081.0849	False		False			
02	ses-029	5	images_fmri/crouton/crouton_01b.jpg	seen	2209	185	1	None	446.0	6450.0	1.0	seen-within-between	3	3	20.88	2.98	True	False	20.886754353996366	23.849840398179367	[['b', 22.341846785042435]]	-1.0	unseen	True	False	1.461846785042436	2.963086044183001	1.0	4.0	1353085.5676	False		False	7.0	0.0	225.0
02	ses-029	6	images_fmri/napkin_ring/napkin_ring_01b.jpg	seen	5017	419	1	None	1052.0	14974.0	1.0	seen-within	2	3	25.35	2.98	False	False	25.354256910970435	28.336078606080264	[['x', 26.524268622975796]]	2.0	seen	False	True	1.174268622975795	2.9818216951098293	1.0	5.0	1353090.0351	False		False	0.0	363.1791000000667	61.0
02	ses-029	7	images_fmri/seagull/seagull_01b.jpg	unseen	6577	549	1	None	1396.0	19823.0	1.0	unseen-between	1	3	29.82	2.98	True	False	29.819718623068184	32.800564465112984	[['y', 31.274272277019918]]	1.0	seen	True	False	1.4542722770199177	2.9808458420448005	1.0	6.0	1353094.5006	False		False			
02	ses-029	8	images_fmri/pom-pom/pom-pom_01b.jpg	seen	5797	484	1	None	1219.0	17341.0	1.0	seen-between	2	3	34.29	2.98	True	False	34.28848821413703	37.27037703804672	[['x', 35.47013892419636]]	2.0	seen	False	True	1.1801389241963631	2.981888823909685	1.0	7.0	1353098.9694	False		False	7.0	0.0	271.0
02	ses-029	9	images_fmri/banana/banana_01b.jpg	unseen	349	30	1	None	64.0	948.0	1.0	unseen-within	1	3	38.76	2.98	False	True	38.754395336145535	41.73340889811516	[['x', 40.3968462520279]]	-1.0	unseen	False	False	1.636846252027901	2.979013561969623	1.0	8.0	1353103.4353	False		False			
02	ses-029	10	images_fmri/spoon/spoon_01b.jpg	seen	7081	591	1	None	1520.0	21485.0	1.0	seen-between	2	3	43.23	2.98	True	False	43.236074161017314	46.19919739617035	[['y', 44.70570500404574]]	1.0	seen	False	False	1.475705004045743	2.9631232351530343	1.0	9.0	1353107.9170	False		False	7.0	0.0	471.0
02	ses-029	11	images_fmri/wine/wine_01b.jpg	seen	8497	709	1	None	1824.0	25674.0	1.0	seen-within-between	3	3	47.7	2.98	True	True	47.70205491408706	50.68349087401293	[['y', 50.199017110979185]]	1.0	seen	False	False	2.4990171109791817	2.981435959925875	1.0	10.0	1353112.3829	False		False	7.0	0.0	204.0
02	ses-029	12	images_fmri/footrest/footrest_01b.jpg	seen	3097	259	1	None	634.0	9143.0	1.0	seen-within-between	3	3	52.17	2.98	False	False	52.16927714413032	55.14965474419296	[['x', 53.38342578499578]]	2.0	seen	False	True	1.2134257849957777	2.9803776000626385	1.0	11.0	1353116.8502	False		False	7.0	0.0	314.0
02	ses-029	13	images_fmri/emerald/emerald_01b.jpg	seen	2773	232	1	None	556.0	8055.0	1.0	seen-within	2	3	56.64	2.98	True	False	56.63486569211818	59.61982653196901	[['x', 57.59782673208974]]	2.0	seen	False	True	0.9578267320897424	2.984960839850828	1.0	12.0	1353121.3158	False		False	0.0	206.7094999998808	26.0
02	ses-029	14	images_fmri/towel/towel_01b.jpg	seen	7885	658	1	None	1693.0	23882.0	1.0	seen-within-between	3	3	61.11	2.98	False	True	61.10345503501594	64.08380882209167	[['a', 62.92052738904022]]	1.0	seen	False	False	1.8105273890402171	2.980353787075728	1.0	13.0	1353125.7843	False		False	7.0	0.0	264.0
02	ses-029	15	images_fmri/wig/wig_01s.jpg	seen	8473	707	1	None	1817.0	25580.0	1.0	seen-between	2	3	65.58	2.98	False	False	65.58318670699373	68.54958771215752	[['a', 66.82686625118367]]	1.0	seen	False	False	1.2468662511836754	2.966401005163789	1.0	14.0	1353130.2641	False		False	7.0	0.0	350.0
02	ses-029	16	images_fmri/pickle/pickle_01b.jpg	seen	5545	463	1	None	1168.0	16611.0	1.0	seen-within-between	3	3	70.05	2.98	False	True	70.05245266016573	73.03384360019118	[['x', 71.78641032706946], ['a', 72.22841641213745]]	-1.0	unseen	True	False	1.7364103270694642	2.981390940025449	1.0	15.0	1353134.7333	False		False	7.0	0.0	187.0
02	ses-029	17	images_fmri/raccoon/raccoon_01b.jpg	seen	6061	506	1	None	1267.0	18051.0	1.0	seen-within-between	3	3	74.52	2.98	False	False	74.5190981621854	77.4997056000866	[['a', 76.01768375001848]]	1.0	seen	False	False	1.4976837500184814	2.980607437901199	1.0	16.0	1353139.2000	False		False	7.0	0.0	217.0
02	ses-029	18	images_fmri/ashtray/ashtray_01s.jpg	unseen	217	19	1	None	42.0	578.0	1.0	unseen-between	1	3	78.99	2.98	True	True	78.98252730211243	81.96616072696634	[['x', 80.92463821009733]]	-1.0	unseen	False	False	1.934638210097333	2.983633424853906	1.0	17.0	1353143.6634	False		False			
02	ses-029	19	images_fmri/wasp/wasp_01b.jpg	unseen	8353	697	1	None	1786.0	25168.0	1.0	unseen-within	1	3	83.46	2.98	True	False	83.44895506300963	86.431410580175	[['y', 85.94246850418858]]	1.0	seen	True	False	2.482468504188589	2.982455517165363	1.0	18.0	1353148.1298	False		False			
02	ses-029	20	images_fmri/wig/wig_01s.jpg	seen	8473	707	1	None	1817.0	25580.0	1.0	seen-between-within	3	3	87.92999999999998	2.98	False	True	87.93517524097115	90.90216859104112	[['b', 88.89959274907596]]	2.0	seen	False	True	0.9695927490759856	2.96699335006997	1.0	19.0	1353152.6161	False		False	0.0	22.351999999955297	5.0
02	ses-029	21	images_fmri/coverall/coverall_01b.jpg	unseen	2089	175	1	None	426.0	6136.0	1.0	unseen-between	1	3	92.4	2.98	True	False	92.3988953710068	95.38348578219302	[['y', 93.96583767607808]]	1.0	seen	True	False	1.5658376760780754	2.9845904111862183	1.0	20.0	1353157.0798	False		False			
02	ses-029	22	images_fmri/spoon/spoon_01b.jpg	seen	7081	591	1	None	1520.0	21485.0	1.0	seen-between-within	3	3	96.87	2.98	True	True	96.8686683101114	99.8476426221896	[['b', 97.96339937811717]]	2.0	seen	False	True	1.0933993781171694	2.978974312078208	1.0	21.0	1353161.5496	False		False	0.0	53.63260000012815	12.0
02	ses-029	23	images_fmri/fence/fence_01b.jpg	unseen	2857	239	1	None	576.0	8322.0	1.0	unseen-between	1	3	101.34	2.98	False	False	101.33620787714608	104.31421057018451	[['b', 102.96231344202533]]	-1.0	unseen	False	False	1.6223134420253302	2.978002693038434	1.0	22.0	1353166.0171	False		False			
02	ses-029	24	images_fmri/boxer_shorts/boxer_shorts_01b.jpg	seen	901	76	1	None	183.0	2771.0	1.0	seen-between	2	3	105.81	2.98	False	False	105.80355115816928	108.78074070019647	[['a', 107.46228964813054]]	1.0	seen	False	False	1.6522896481305338	2.9771895420271903	1.0	23.0	1353170.4844	False		False	7.0	0.0	212.0
02	ses-029	25	images_fmri/footbath/footbath_01s.jpg	seen	3073	257	1	None	632.0	9116.0	1.0	seen-within-between	3	3	110.28	2.98	True	True	110.28469007811508	113.24762384709902	[['y', 111.96850418113172]]	1.0	seen	False	False	1.6885041811317194	2.9629337689839303	1.0	24.0	1353174.9656	False		False	7.0	0.0	149.0
02	ses-029	26	images_fmri/sickle/sickle_01b.jpg	unseen	6757	564	1	None	1442.0	20444.0	1.0	unseen-within	1	3	114.75	2.98	True	True	114.7492978121154	117.73281677509658	[['y', 117.38497428805567]]	1.0	seen	True	False	2.634974288055673	2.98351896298118	1.0	25.0	1353179.4302	False		False			
02	ses-029	27	images_fmri/muffin/muffin_01b.jpg	unseen	4969	415	1	None	1036.0	14760.0	1.0	unseen-within	1	3	119.22	2.98	True	True	119.2188771071378	122.1986226211302	[['x', 120.51019171299413]]	-1.0	unseen	False	False	1.2901917129941296	2.979745513992384	1.0	26.0	1353183.8998	False		False			
02	ses-029	28	images_fmri/eggplant/eggplant_01b.jpg	seen	2737	229	1	None	551.0	7991.0	1.0	seen-between	2	3	123.69	2.98	True	False	123.68515541707166	126.66391084599309	[['b', 125.51984180510044]]	-1.0	unseen	True	False	1.8298418051004437	2.9787554289214317	1.0	27.0	1353188.3660	False		False	7.0	0.0	198.0
02	ses-029	29	images_fmri/magnifying_glass/magnifying_glass_01b.jpg	seen	4537	379	1	None	959.0	13662.0	1.0	seen-within	2	3	128.16	2.98	True	False	128.1481101210229	131.13273816206492	[['x', 129.14603544818237]]	2.0	seen	False	True	0.9860354481823776	2.984628041042015	1.0	28.0	1353192.8290	False		False	0.0	269.2735999999568	40.0
02	ses-029	30	images_fmri/crib/crib_01b.jpg	seen	2185	183	1	None	442.0	6389.0	1.0	seen-between	2	3	132.63	2.98	False	True	132.63461004802957	135.59746736614034	[['a', 133.9023586891126]]	1.0	seen	False	False	1.2723586891125933	2.962857318110764	1.0	29.0	1353197.3155	False		False	7.0	0.0	258.0
02	ses-029	31	images_fmri/map/map_01s.jpg	unseen	4621	386	1	None	971.0	13839.0	1.0	unseen-between	1	3	137.1	2.98	True	False	137.10183897498064	140.08156714518557	[['y', 138.5730160761159]]	1.0	seen	True	False	1.473016076115897	2.979728170204908	1.0	30.0	1353201.7827	False		False			
02	ses-029	32	images_fmri/muffin/muffin_01b.jpg	seen	4969	415	1	None	1036.0	14760.0	1.0	seen-within	2	3	141.57	2.98	True	True	141.56730945105664	144.55251198098995	[['b', 142.50006537302397]]	2.0	seen	False	True	0.9300653730239788	2.985202529933304	1.0	31.0	1353206.2482	False		False	0.0	22.348400000017136	5.0
02	ses-029	33	images_fmri/crib/crib_01b.jpg	seen	2185	183	1	None	442.0	6389.0	1.0	seen-between-within	3	3	146.04	2.98	False	False	146.0309954220429	149.0130771130789	[['x', 147.6520534500014]]	2.0	seen	False	True	1.6120534500014116	2.982081691036001	1.0	32.0	1353210.7119	False		False	0.0	13.396399999968708	3.0
02	ses-029	34	images_fmri/television/television_01b.jpg	seen	7609	635	1	None	1642.0	23176.0	1.0	seen-between	2	3	150.51	2.98	False	True	150.51589773711748	153.48099960712716	[['a', 152.10023350501433]]	1.0	seen	False	False	1.5902335050143392	2.965101870009676	1.0	33.0	1353215.1968	False		False	7.0	0.0	375.0
02	ses-029	35	images_fmri/pig/pig_01b.jpg	seen	5569	465	1	None	1171.0	16661.0	1.0	seen-between	2	3	154.98	2.98	False	True	154.98231533099897	157.96518489113078	[['a', 156.50584124797024]]	1.0	seen	False	False	1.5258412479702486	2.982869560131803	1.0	34.0	1353219.6632	False		False	7.0	0.0	166.0
02	ses-029	36	images_fmri/chocolate/chocolate_01b.jpg	seen	1741	146	1	None	339.0	4892.0	1.0	seen-within	2	3	159.45	2.98	False	True	159.45181929902174	162.43074743100442	[['b', 160.4248459271621]]	2.0	seen	False	True	0.9748459271621072	2.978928131982684	1.0	35.0	1353224.1327	False		False	0.0	792.6635999998543	136.0
02	ses-029	37	images_fmri/pig/pig_01b.jpg	seen	5569	465	1	None	1171.0	16661.0	1.0	seen-between-within	3	3	163.92	2.98	False	True	163.91557886311784	166.90000783698633	[['b', 165.0199950230308]]	2.0	seen	False	True	1.0999950230308002	2.9844289738684893	1.0	36.0	1353228.5965	False		False	0.0	8.933299999916926	2.0
02	ses-029	38	images_fmri/wasp/wasp_01b.jpg	seen	8353	697	1	None	1786.0	25168.0	1.0	seen-within	2	3	168.39	2.98	True	True	168.38436492113397	171.3703376671765	[['b', 169.59092559618875]]	2.0	seen	False	True	1.2009255961887677	2.9859727460425347	1.0	37.0	1353233.0652	False		False	0.0	84.93540000007488	19.0
02	ses-029	39	images_fmri/earring/earring_01b.jpg	seen	2665	223	1	None	541.0	7848.0	1.0	seen-between	2	3	172.86	2.98	True	True	172.86598932207562	175.83119804318994	[['y', 175.0420404681936]]	1.0	seen	False	False	2.182040468193577	2.9652087211143225	1.0	38.0	1353237.5469	False		False	7.0	0.0	332.0
02	ses-029	40	images_fmri/bag/bag_01b.jpg	unseen	289	25	1	None	55.0	796.0	1.0	unseen-within	1	3	177.32999999999996	2.98	False	False	177.3298971960321	180.31344077317044	[['b', 178.7246349460911]]	-1.0	unseen	False	False	1.394634946091145	2.9835435771383345	1.0	39.0	1353242.0108	False		False			
02	ses-029	41	images_fmri/ladder/ladder_01b.jpg	unseen	4189	350	1	None	887.0	12694.0	1.0	unseen-between	1	3	181.8	2.98	False	True	181.80049201007927	184.78051196201704	[['x', 183.10546929412521]]	-1.0	unseen	False	False	1.3054692941252029	2.98001995193772	1.0	40.0	1353246.4814	False		False			
02	ses-029	42	images_fmri/face_mask/face_mask_01b.jpg	unseen	2845	238	1	None	571.0	8256.0	1.0	unseen-within	1	3	186.27	2.98	False	False	186.263244823087	189.2463295310736	[['a', 188.1835947241634]]	1.0	seen	True	False	1.9135947241634028	2.9830847079865634	1.0	41.0	1353250.9441	False		False			
02	ses-029	43	images_fmri/wooden_leg/wooden_leg_01b.jpg	seen	8557	714	1	None	1835.0	25833.0	1.0	seen-between-within	3	3	190.74	2.98	True	False	190.7335128420964	193.71474793204104	[['x', 191.64771125116386]]	2.0	seen	False	True	0.907711251163846	2.981235089944676	1.0	42.0	1353255.4144	False		False	0.0	497.2576999999583	91.0
02	ses-029	44	images_fmri/wolf/wolf_01b.jpg	seen	8533	712	1	None	1832.0	25794.0	1.0	seen-within	2	3	195.21	2.98	False	True	195.21559955598784	198.1783982561901	[['b', 196.595581256086]]	2.0	seen	False	True	1.3855812560859988	2.9627987002022564	1.0	43.0	1353259.8965	False		False	0.0	461.50740000000224	83.0
02	ses-029	45	images_fmri/hamster/hamster_01b.jpg	seen	3613	302	1	None	744.0	10655.0	1.0	seen-between-within	3	3	199.68	2.98	True	False	199.68237327504903	202.66528881317936	[['x', 200.72633603797294]]	2.0	seen	False	True	1.0463360379729352	2.982915538130328	1.0	44.0	1353264.3633	False		False	0.0	381.03960000001825	65.0
02	ses-029	46	images_fmri/grenade/grenade_01b.jpg	seen	3457	289	1	None	714.0	10238.0	1.0	seen-within	2	3	204.15	2.98	False	True	204.15068913414143	207.1340143000707	[['b', 205.1145106481854]]	2.0	seen	False	True	0.9645106481853816	2.9833251659292728	1.0	45.0	1353268.8316	False		False	0.0	331.8751999998931	54.0
02	ses-029	47	images_fmri/bag/bag_01b.jpg	seen	289	25	1	None	55.0	796.0	1.0	seen-within	2	3	208.62	2.98	False	False	208.6171445960645	211.59990298817863	[['x', 209.55942275607958]]	2.0	seen	False	True	0.9394227560795798	2.982758392114192	1.0	46.0	1353273.2980	False		False	0.0	31.28719999990426	7.0
02	ses-029	48	images_fmri/lamp/lamp_01b.jpg	unseen	4213	352	1	None	892.0	12769.0	1.0	unseen-between	1	3	213.09	2.98	True	True	213.08267292007804	216.0631685659755	[['x', 214.64827646315098]]	-1.0	unseen	False	False	1.558276463150975	2.980495645897463	1.0	47.0	1353277.7636	False		False			
02	ses-029	49	images_fmri/dish/dish_01b.jpg	unseen	2413	202	1	None	490.0	7080.0	1.0	unseen-between	1	3	217.56	2.98	True	False	217.5653248450253	220.5279263921548	[['b', 219.04147846018896]]	-1.0	unseen	False	False	1.4814784601889528	2.962601547129452	1.0	48.0	1353282.2462	False		False			
02	ses-029	50	images_fmri/gel/gel_01b.jpg	unseen	3229	270	1	None	670.0	9597.0	1.0	unseen-within	1	3	222.03	2.98	False	False	222.02890936215408	225.0128019670956	[['b', 223.51752303214744]]	-1.0	unseen	False	False	1.4875230321474362	2.983892604941502	1.0	49.0	1353286.7098	False		False			
02	ses-029	51	images_fmri/boxer_shorts/boxer_shorts_01b.jpg	seen	901	76	1	None	183.0	2771.0	1.0	seen-between-within	3	3	226.5	2.98	False	False	226.49924355908297	229.48000256111845	[['x', 227.3731593240518]]	2.0	seen	False	True	0.8731593240518123	2.980759002035484	1.0	50.0	1353291.1801	False		False	0.0	120.69570000004023	27.0
02	ses-029	52	images_fmri/compass/compass_01b.jpg	seen	1945	163	1	None	393.0	5650.0	1.0	seen-between-within	3	3	230.97	2.98	False	True	230.96491914405487	233.94867968303151	[['b', 231.95620297803544]]	2.0	seen	False	True	0.9862029780354362	2.9837605389766395	1.0	51.0	1353295.6458	False		False	0.0	430.2084000001196	76.0
02	ses-029	53	images_fmri/garlic/garlic_01b.jpg	seen	3181	266	1	None	659.0	9463.0	1.0	seen-between-within	3	3	235.44	2.98	False	True	235.4283049569931	238.4148240829818	[['b', 236.4574842089787]]	2.0	seen	False	True	1.0174842089787148	2.986519125988707	1.0	52.0	1353300.1092	False		False	0.0	730.0764000001363	122.0
02	ses-029	54	images_fmri/wrapping_paper/wrapping_paper_01b.jpg	seen	8581	716	1	None	1839.0	25889.0	1.0	seen-between-within	3	3	239.91	2.98	False	False	239.91500934003847	242.88135399413292	[['x', 240.78300418518484]]	2.0	seen	False	True	0.8730041851848398	2.966344654094428	1.0	53.0	1353304.5959	False		False	0.0	743.498900000006	125.0
02	ses-029	55	images_fmri/phone/phone_01b.jpg	seen	5521	461	1	None	1162.0	16532.0	1.0	seen-between	2	3	244.38	2.98	False	True	244.3798318330664	247.36223092419092	[['a', 246.44522702414542]]	1.0	seen	False	False	2.065227024145429	2.9823990911245346	1.0	54.0	1353309.0607	False		False	7.0	0.0	389.0
02	ses-029	56	images_fmri/cardigan/cardigan_01b.jpg	seen	1417	119	1	None	274.0	4018.0	1.0	seen-within-between	3	3	248.85	2.98	True	True	248.8471233639866	251.8278846091125	[['x', 250.54664667719044]]	-1.0	unseen	True	False	1.6966466771904436	2.9807612451259047	1.0	55.0	1353313.5280	False		False	7.0	0.0	190.0
02	ses-029	57	images_fmri/gel/gel_01b.jpg	seen	3229	270	1	None	670.0	9597.0	1.0	seen-within	2	3	253.32	2.98	True	False	253.31529869209044	256.2965010020416	[['x', 254.22623195196502]]	2.0	seen	False	True	0.906231951965026	2.981202309951186	1.0	56.0	1353317.9962	False		False	0.0	31.286399999866262	7.0
02	ses-029	58	images_fmri/scallion/scallion_01b.jpg	unseen	6469	540	1	None	1373.0	19499.0	1.0	unseen-between	1	3	257.79	2.98	True	False	257.7804132059682	260.7615654990077	[['y', 259.0948832461145]]	1.0	seen	True	False	1.304883246114457	2.981152293039486	1.0	57.0	1353322.4613	False		False			
02	ses-029	59	images_fmri/filing_cabinet/filing_cabinet_01b.jpg	unseen	2917	244	1	None	586.0	8467.0	1.0	unseen-within	1	3	262.26	2.98	True	True	262.26472767908126	265.23100739717484	[['y', 263.4491217760369]]	1.0	seen	True	False	1.1891217760369273	2.966279718093574	1.0	58.0	1353326.9456	False		False			
02	ses-029	60	images_fmri/snowboard/snowboard_01b.jpg	seen	6913	577	1	None	1482.0	20990.0	1.0	seen-within-between	3	3	266.73	2.98	False	True	266.7297206199728	269.7108887110371	[['b', 267.88686846010387]]	2.0	seen	False	True	1.1568684601038512	2.981168091064319	1.0	59.0	1353331.4106	False		False	7.0	0.0	189.0
