subject	session	TrialNumber	image_path	condition	image_nr	category_nr	exemplar_nr	test_image_nr	things_category_nr	things_image_nr	things_exemplar_nr	subcondition	repetition	run	onset	duration	response_mapping_flip_h	response_mapping_flip_v	onset_flip	offset_flip	keypresses	response	response_txt	error	response_confidence	response_time	duration_flip	ran	order	session_trial_time	atypical	atypical_log	exclude_session	delay_days	delay_seconds	trials_since_lastrep
02	ses-035	1	images_fmri/groundhog/groundhog_02s.jpg	seen	3482	291	2	None	719.0	10300.0	2.0	seen-between	2	2	3.0	2.98	True	True	3.001452305994462	5.968382809020113	[['y', 4.578864381008316]]	1.0	seen	False	False	1.5788643810083158	2.966930503025651	1.0	0.0	511238.1494	False		False	21.0	0.0	354.0
02	ses-035	2	images_fmri/pom-pom/pom-pom_02s.jpg	seen	5798	484	2	None	1219.0	17342.0	2.0	seen-within-between	3	2	7.47	2.98	False	True	7.471479249012191	10.45273007801734	[['b', 8.603553687979002]]	2.0	seen	False	True	1.1335536879790018	2.9812508290051483	1.0	1.0	511242.6194	False		False	21.0	0.0	383.0
02	ses-035	3	images_fmri/wig/wig_02s.jpg	seen	8474	707	2	None	1817.0	25581.0	2.0	seen-within-between	3	2	11.94	2.98	True	True	11.938517940987367	14.920682867988944	[['x', 13.933392983977683]]	-1.0	unseen	True	False	1.9933929839776836	2.982164927001577	1.0	2.0	511247.0864	False		False	21.0	0.0	275.0
02	ses-035	4	images_fmri/wolf/wolf_02s.jpg	unseen	8534	712	2	None	1832.0	25795.0	2.0	unseen-within	1	2	16.41	2.98	True	False	16.40683746401919	19.38561681698775	[['y', 17.772402054979466]]	1.0	seen	True	False	1.3624020549794658	2.9787793529685587	1.0	3.0	511251.5548	False		False			
02	ses-035	5	images_fmri/television/television_02n.jpg	seen	7610	635	2	None	1642.0	23177.0	2.0	seen-within-between	3	2	20.88	2.98	False	True	20.872760954021945	23.852091325970832	[['a', 22.832437438017223]]	1.0	seen	False	False	1.952437438017224	2.9793303719488904	1.0	4.0	511256.0207	False		False	21.0	0.0	89.0
02	ses-035	6	images_fmri/shower/shower_02s.jpg	seen	6710	560	2	None	1434.0	20328.0	2.0	seen-within-between	3	2	25.35	2.98	True	False	25.35212622000836	28.318003688007597	[['x', 26.68735464598285]]	2.0	seen	False	True	1.337354645982849	2.965877467999235	1.0	5.0	511260.5000	False		False	21.0	0.0	77.0
02	ses-035	7	images_fmri/pig/pig_02s.jpg	seen	5570	465	2	None	1171.0	16662.0	2.0	seen-within-between	3	2	29.82	2.98	False	True	29.82154845702462	32.80315552902175	[['x', 31.34482310898602]]	-1.0	unseen	True	False	1.5248231089860198	2.981607071997132	1.0	6.0	511264.9695	False		False	21.0	0.0	190.0
02	ses-035	8	images_fmri/groundhog/groundhog_02s.jpg	seen	3482	291	2	None	719.0	10300.0	2.0	seen-between-within	3	2	34.29	2.98	False	False	34.28866589197423	37.26859477802645	[['x', 35.20102601998951]]	2.0	seen	False	True	0.9110260199895136	2.979928886052221	1.0	7.0	511269.4366	False		False	0.0	31.287200000020675	7.0
02	ses-035	9	images_fmri/ping-pong_table/ping-pong_table_02s.jpg	unseen	5630	470	2	None	1185.0	16854.0	2.0	unseen-within	1	2	38.76	2.98	False	False	38.75512532499852	41.73571713297861	[['b', 40.25328184600221]]	-1.0	unseen	False	False	1.493281846002212	2.9805918079800904	1.0	8.0	511273.9030	False		False			
02	ses-035	10	images_fmri/chili/chili_02s.jpg	seen	1682	141	2	None	328.0	4745.0	2.0	seen-between	2	2	43.23	2.98	True	True	43.22236823901767	46.20191966299899	[['y', 45.09340865397826]]	1.0	seen	False	False	1.8634086539782613	2.97955142398132	1.0	9.0	511278.3703	False		False	21.0	0.0	333.0
02	ses-035	11	images_fmri/coin/coin_02s.jpg	unseen	1910	160	2	None	386.0	5552.0	2.0	unseen-within	1	2	47.7	2.98	True	False	47.70351026102435	50.668069689010736	[['b', 49.081309037981555]]	-1.0	unseen	False	False	1.381309037981552	2.964559427986387	1.0	10.0	511282.8514	False		False			
02	ses-035	12	images_fmri/hammock/hammock_02s.jpg	unseen	3602	301	2	None	743.0	10644.0	2.0	unseen-within	1	2	52.17	2.98	False	True	52.170248140988406	55.15155365702231	[['x', 53.7449961300008]]	-1.0	unseen	False	False	1.5749961300007982	2.981305516033899	1.0	11.0	511287.3182	False		False			
02	ses-035	13	images_fmri/snorkel/snorkel_02s.jpg	seen	6902	576	2	None	1479.0	20953.0	2.0	seen-within-between	3	2	56.64	2.98	True	False	56.637752252980135	59.61749488802161	[['x', 57.93909566098591]]	2.0	seen	False	True	1.2990956609859126	2.9797426350414757	1.0	12.0	511291.7857	False		False	21.0	0.0	342.0
02	ses-035	14	images_fmri/rabbit/rabbit_02s.jpg	seen	6050	505	2	None	1266.0	18038.0	2.0	seen-between-within	3	2	61.11	2.98	True	False	61.10450387297897	64.08871803898364	[['x', 62.14287409198005]]	2.0	seen	False	True	1.032874091980048	2.9842141660046764	1.0	13.0	511296.2524	False		False	0.0	426.50380000000587	66.0
02	ses-035	15	images_fmri/oatmeal/oatmeal_02s.jpg	seen	5114	427	2	None	1070.0	15209.0	2.0	seen-between	2	2	65.58	2.98	False	True	65.56810172897531	68.55201375600882	[['x', 68.0340058329748]]	-1.0	unseen	True	False	2.4540058329748007	2.9839120270335115	1.0	14.0	511300.7160	False		False	21.0	0.0	389.0
02	ses-035	16	images_fmri/flyswatter/flyswatter_02s.jpg	unseen	3038	254	2	None	624.0	9003.0	2.0	unseen-between	1	2	70.05	2.98	False	False	70.05368404998444	73.01811975502642	[['b', 71.17602947697742]]	-1.0	unseen	False	False	1.126029476977422	2.9644357050419785	1.0	15.0	511305.2016	False		False			
02	ses-035	17	images_fmri/chicken_wire/chicken_wire_02s.jpg	seen	1670	140	2	None	323.0	4680.0	2.0	seen-between	2	2	74.52	2.98	False	False	74.52159641700564	77.50145058601629	[['b', 76.402070119977]]	-1.0	unseen	True	False	1.8820701199770011	2.9798541690106504	1.0	16.0	511309.6695	False		False	21.0	0.0	112.0
02	ses-035	18	images_fmri/crate/crate_02s.jpg	seen	2138	179	2	None	434.0	6267.0	2.0	seen-between	2	2	78.99	2.98	False	True	78.98714694200316	81.9677434170153	[['a', 80.69597897597123]]	1.0	seen	False	False	1.7059789759712345	2.9805964750121348	1.0	17.0	511314.1351	False		False	21.0	0.0	136.0
02	ses-035	19	images_fmri/sundial/sundial_02s.jpg	unseen	7358	614	2	None	1584.0	22362.0	2.0	unseen-within	1	2	83.46	2.98	False	True	83.45465186901856	86.4343615300022	[['a', 85.53196835401468]]	1.0	seen	True	False	2.071968354014686	2.9797096609836444	1.0	18.0	511318.6026	False		False			
02	ses-035	20	images_fmri/stalagmite/stalagmite_02s.jpg	unseen	7154	597	2	None	1535.0	21691.0	2.0	unseen-between	1	2	87.92999999999998	2.98	False	False	87.93648561800364	90.90015326702267	[['a', 90.17261262901593]]	1.0	seen	True	False	2.242612629015952	2.963667649019044	1.0	19.0	511323.0844	False		False			
02	ses-035	21	images_fmri/snowplow/snowplow_02s.jpg	seen	6926	578	2	None	1485.0	21027.0	2.0	seen-within-between	3	2	92.4	2.98	False	False	92.40241391700692	95.36735782999313	[['a', 93.67675340897404]]	1.0	seen	False	False	1.276753408974031	2.9649439129862003	1.0	20.0	511327.5503	False		False	21.0	0.0	266.0
02	ses-035	22	images_fmri/beer/beer_02s.jpg	seen	542	46	2	None	114.0	1736.0	2.0	seen-between	2	2	96.87	2.98	False	False	96.87134737998711	99.85108604299604	[['b', 98.22972621500958]]	-1.0	unseen	True	False	1.359726215009573	2.979738663008902	1.0	21.0	511332.0193	False		False	21.0	0.0	185.0
02	ses-035	23	images_fmri/beaker/beaker_02s.jpg	seen	470	40	2	None	102.0	1529.0	2.0	seen-within-between	3	2	101.34	2.98	True	False	101.33391587401276	104.32172145799268	[['b', 102.51909167901613]]	-1.0	unseen	True	False	1.1790916790161248	2.9878055839799345	1.0	22.0	511336.4818	False		False	21.0	0.0	396.0
02	ses-035	24	images_fmri/spinach/spinach_02s.jpg	unseen	7070	590	2	None	1516.0	21433.0	2.0	unseen-between	1	2	105.81	2.98	False	True	105.80360893998296	108.7825566069805	[['a', 107.16960010002367]]	1.0	seen	True	False	1.3596001000236697	2.978947666997556	1.0	23.0	511340.9515	False		False			
02	ses-035	25	images_fmri/train/train_02s.jpg	unseen	7922	661	2	None	1699.0	23969.0	2.0	unseen-between	1	2	110.28	2.98	True	False	110.28821829898516	113.25301404698985	[['b', 111.47191021300387]]	-1.0	unseen	False	False	1.1919102130038652	2.96479574800469	1.0	24.0	511345.4361	False		False			
02	ses-035	26	images_fmri/crutch/crutch_02s.jpg	seen	2246	188	2	None	453.0	6544.0	2.0	seen-within	2	2	114.75	2.98	True	False	114.75312292500166	117.73635064600968	[['x', 115.81066408701008]]	2.0	seen	False	True	1.060664087010082	2.9832277210080065	1.0	25.0	511349.9010	False		False	0.0	404.15710000001127	61.0
02	ses-035	27	images_fmri/lamp/lamp_02s.jpg	unseen	4214	352	2	None	892.0	12770.0	2.0	unseen-within	1	2	119.22	2.98	False	False	119.22106634697413	122.20109867100837	[['b', 121.07590592099587]]	-1.0	unseen	False	False	1.8559059209958664	2.980032324034255	1.0	26.0	511354.3690	False		False			
02	ses-035	28	images_fmri/highlighter/highlighter_02s.jpg	unseen	3758	314	2	None	779.0	11149.0	2.0	unseen-between	1	2	123.69	2.98	True	False	123.68692806200124	126.66672691097484	[['b', 125.00557428802131]]	-1.0	unseen	False	False	1.3155742880213095	2.979798848973587	1.0	27.0	511358.8348	False		False			
02	ses-035	29	images_fmri/popsicle/popsicle_02s.jpg	unseen	5834	487	2	None	1226.0	17442.0	2.0	unseen-within	1	2	128.16	2.98	False	True	128.15340080397436	131.13203855900792	[['a', 129.79477636097]]	1.0	seen	True	False	1.634776360969994	2.97863775503356	1.0	28.0	511363.3013	False		False			
02	ses-035	30	images_fmri/bib/bib_02s.jpg	seen	602	51	2	None	123.0	1872.0	2.0	seen-between	2	2	132.63	2.98	True	False	132.6346211010241	135.59949270501966	[['y', 134.64860697399126]]	1.0	seen	False	False	2.018606973991268	2.9648716039955616	1.0	29.0	511367.7825	False		False	21.0	0.0	131.0
02	ses-035	31	images_fmri/beer/beer_02s.jpg	seen	542	46	2	None	114.0	1736.0	2.0	seen-between-within	3	2	137.1	2.98	True	True	137.10116546199424	140.0851562889875	[['b', 138.11689012497663]]	2.0	seen	False	True	1.0168901249766409	2.9839908269932494	1.0	30.0	511372.2491	False		False	0.0	40.22980000003008	9.0
02	ses-035	32	images_fmri/cellphone/cellphone_02s.jpg	seen	1526	128	2	None	294.0	4287.0	2.0	seen-between	2	2	141.57	2.98	True	True	141.565633427992	144.5490379689727	[['x', 143.00253924698336]]	-1.0	unseen	True	False	1.432539246983367	2.9834045409807004	1.0	31.0	511376.7136	False		False	21.0	0.0	401.0
02	ses-035	33	images_fmri/lamp/lamp_02s.jpg	seen	4214	352	2	None	892.0	12770.0	2.0	seen-within	2	2	146.04	2.98	False	True	146.03234532201895	149.0158803659724	[['b', 146.9346625439939]]	2.0	seen	False	True	0.8946625439939169	2.9835350439534523	1.0	32.0	511381.1803	False		False	0.0	26.81130000000121	6.0
02	ses-035	34	images_fmri/locker/locker_02s.jpg	seen	4502	376	2	None	942.0	13443.0	2.0	seen-within-between	3	2	150.51	2.98	True	True	150.5034109929693	153.48285502399085	[['x', 151.95336575899273]]	-1.0	unseen	True	False	1.4433657589927409	2.9794440310215577	1.0	33.0	511385.6513	False		False	21.0	0.0	173.0
02	ses-035	35	images_fmri/wolf/wolf_02s.jpg	seen	8534	712	2	None	1832.0	25795.0	2.0	seen-within	2	2	154.98	2.98	False	False	154.98514559102478	157.95384302700404	[['x', 155.93589840602363]]	2.0	seen	False	True	0.9558984060236356	2.9686974359792657	1.0	34.0	511390.1331	False		False	0.0	138.57829999999376	31.0
02	ses-035	36	images_fmri/coin/coin_02s.jpg	seen	1910	160	2	None	386.0	5552.0	2.0	seen-within	2	2	159.45	2.98	True	False	159.45283812499838	162.43528568698093	[['x', 160.40733022801578]]	2.0	seen	False	True	0.9573302280157918	2.982447561982553	1.0	35.0	511394.6008	False		False	0.0	111.74940000002971	25.0
02	ses-035	37	images_fmri/blanket/blanket_02s.jpg	seen	698	59	2	None	137.0	2089.0	2.0	seen-between	2	2	163.92	2.98	True	True	163.919791977969	166.898751050001	[['x', 165.50034222501563]]	-1.0	unseen	True	False	1.5803422250156416	2.978959072032012	1.0	36.0	511399.0677	False		False	21.0	0.0	171.0
02	ses-035	38	images_fmri/chicken_wire/chicken_wire_02s.jpg	seen	1670	140	2	None	323.0	4680.0	2.0	seen-between-within	3	2	168.39	2.98	False	True	168.38633318099892	171.36589630600065	[['b', 169.31725445698248]]	2.0	seen	False	True	0.927254456982496	2.9795631250017323	1.0	37.0	511403.5343	False		False	0.0	93.86479999998119	21.0
02	ses-035	39	images_fmri/footbath/footbath_02s.jpg	seen	3074	257	2	None	632.0	9117.0	2.0	seen-between	2	2	172.86	2.98	False	True	172.85272429900942	175.83102894201875	[['a', 174.8988278679899]]	1.0	seen	False	False	2.0388278679898804	2.978304643009324	1.0	38.0	511408.0006	False		False	21.0	0.0	302.0
02	ses-035	40	images_fmri/jar/jar_02s.jpg	unseen	3986	333	2	None	841.0	12021.0	2.0	unseen-within	1	2	177.32999999999996	2.98	False	False	177.33431385597214	180.29743252601477	[['b', 178.89081295399228]]	-1.0	unseen	False	False	1.5608129539923254	2.963118670042604	1.0	39.0	511412.4822	False		False			
02	ses-035	41	images_fmri/water_fountain/water_fountain_02s.jpg	unseen	8378	699	2	None	1791.0	25235.0	2.0	unseen-between	1	2	181.8	2.98	False	False	181.7981474759872	184.7857381280046	[['b', 182.96429886197438]]	-1.0	unseen	False	False	1.1642988619743733	2.9875906520173885	1.0	40.0	511416.9461	False		False			
02	ses-035	42	images_fmri/cardigan/cardigan_02s.jpg	seen	1418	119	2	None	274.0	4019.0	2.0	seen-within-between	3	2	186.27	2.98	True	True	186.2677432930213	189.2479819349828	[['x', 187.51112097600708]]	-1.0	unseen	True	False	1.2411209760070676	2.9802386419614777	1.0	41.0	511421.4157	False		False	21.0	0.0	332.0
02	ses-035	43	images_fmri/jar/jar_02s.jpg	seen	3986	333	2	None	841.0	12021.0	2.0	seen-within	2	2	190.74	2.98	False	True	190.7357580200187	193.7187316599884	[['b', 191.5974704149994]]	2.0	seen	False	True	0.8574704149993977	2.982973639969714	1.0	42.0	511425.8837	False		False	0.0	13.401499999978114	3.0
02	ses-035	44	images_fmri/saltshaker/saltshaker_02s.jpg	unseen	6422	536	2	None	1351.0	19206.0	2.0	unseen-within	1	2	195.21	2.98	False	False	195.20130405202508	198.18095519702183	[['b', 196.8699031539727]]	-1.0	unseen	False	False	1.6599031539726925	2.979651144996751	1.0	43.0	511430.3492	False		False			
02	ses-035	45	images_fmri/asparagus/asparagus_02n.jpg	unseen	230	20	2	None	43.0	593.0	2.0	unseen-within	1	2	199.68	2.98	True	False	199.68542666902067	202.6468793739914	[['b', 201.22401046502637]]	-1.0	unseen	False	False	1.5440104650263606	2.961452704970725	1.0	44.0	511434.8333	False		False			
02	ses-035	46	images_fmri/hatbox/hatbox_02s.jpg	unseen	3662	306	2	None	759.0	10861.0	2.0	unseen-between	1	2	204.15	2.98	True	True	204.15039419097596	207.1321622789837	[['x', 205.81528018100653]]	-1.0	unseen	False	False	1.6652801810065228	2.9817680880078115	1.0	45.0	511439.2983	False		False			
02	ses-035	47	images_fmri/cow/cow_02s.jpg	unseen	2102	176	2	None	427.0	6151.0	2.0	unseen-within	1	2	208.62	2.98	False	True	208.61860143300143	211.59836769499816	[['y', 210.6440293659689]]	-2.0	unseen	False	True	2.024029365968886	2.9797662619967014	1.0	46.0	511443.7665	False		False			
02	ses-035	48	images_fmri/popsicle/popsicle_02s.jpg	seen	5834	487	2	None	1226.0	17442.0	2.0	seen-within	2	2	213.09	2.98	True	True	213.0830922080204	216.0674882630119	[['b', 214.04297813301673]]	2.0	seen	False	True	0.9529781330167282	2.984396054991521	1.0	47.0	511448.2310	False		False	0.0	84.92970000003697	19.0
02	ses-035	49	images_fmri/crib/crib_02s.jpg	seen	2186	183	2	None	442.0	6390.0	2.0	seen-within-between	3	2	217.56	2.98	True	True	217.5661679310142	220.535007287981	[['x', 218.7514552359935]]	-1.0	unseen	True	False	1.1914552359934871	2.9688393569667824	1.0	48.0	511452.7141	False		False	21.0	0.0	203.0
02	ses-035	50	images_fmri/eyepiece/eyepiece_02s.jpg	seen	2822	236	2	None	569.0	8233.0	2.0	seen-between-within	3	2	222.03	2.98	True	True	222.0332397409948	224.99696561601013	[['b', 223.05772063997574]]	2.0	seen	False	True	1.0277206399757404	2.9637258750153705	1.0	49.0	511457.1812	False		False	0.0	471.20470000000205	76.0
02	ses-035	51	images_fmri/pumpkin/pumpkin_02s.jpg	unseen	6002	501	2	None	1254.0	17854.0	2.0	unseen-within	1	2	226.5	2.98	True	False	226.49916041299	229.4812216340215	[['b', 227.9665983460145]]	-1.0	unseen	False	False	1.4665983460145071	2.982061221031472	1.0	50.0	511461.6471	False		False			
02	ses-035	52	images_fmri/blanket/blanket_02s.jpg	seen	698	59	2	None	137.0	2089.0	2.0	seen-between-within	3	2	230.97	2.98	False	False	230.9632747480064	233.9514510919689	[['x', 231.9266549400054]]	2.0	seen	False	True	0.956654940005393	2.98817634396255	1.0	51.0	511466.1112	False		False	0.0	67.04349999997066	15.0
02	ses-035	53	images_fmri/inhaler/inhaler_02s.jpg	seen	3938	329	2	None	829.0	11853.0	2.0	seen-between	2	2	235.44	2.98	False	True	235.4329685929697	238.41339019697625	[['a', 236.8390542740235]]	1.0	seen	False	False	1.3990542740235128	2.980421604006551	1.0	52.0	511470.5809	False		False	21.0	0.0	152.0
02	ses-035	54	images_fmri/camel/camel_02s.jpg	seen	1274	107	2	None	246.0	3640.0	2.0	seen-between	2	2	239.91	2.98	True	False	239.9158233460039	242.8793522620108	[['y', 241.3788621679996]]	1.0	seen	False	False	1.4688621679996174	2.963528916006908	1.0	53.0	511475.0637	False		False	21.0	0.0	454.0
02	ses-035	55	images_fmri/crate/crate_02s.jpg	seen	2138	179	2	None	434.0	6267.0	2.0	seen-between-within	3	2	244.38	2.98	True	True	244.38268916500965	247.3636018619873	[['b', 245.30464538699016]]	2.0	seen	False	True	0.9246453869901644	2.980912696977612	1.0	54.0	511479.5306	False		False	0.0	165.39549999998417	37.0
02	ses-035	56	images_fmri/sheep/sheep_02s.jpg	seen	6626	553	2	None	1415.0	20077.0	2.0	seen-within-between	3	2	248.85	2.98	True	True	248.84640110499456	251.83093133801597	[['y', 250.39739761897363]]	1.0	seen	False	False	1.5473976189736334	2.98453023302136	1.0	55.0	511483.9943	False		False	21.0	0.0	126.0
02	ses-035	57	images_fmri/stethoscope/stethoscope_02s.jpg	seen	7226	603	2	None	1551.0	21905.0	2.0	seen-within	2	2	253.32	2.98	True	False	253.31716237700311	256.3007642099983	[['x', 254.34198414202547]]	2.0	seen	False	True	1.0219841420254738	2.983601832995191	1.0	56.0	511488.4651	False		False	0.0	475.67229999997653	77.0
02	ses-035	58	images_fmri/saltshaker/saltshaker_02s.jpg	seen	6422	536	2	None	1351.0	19206.0	2.0	seen-within	2	2	257.79	2.98	True	True	257.7827231339761	260.7627612570068	[['b', 258.6983370470116]]	2.0	seen	False	True	0.908337047011571	2.980038123030681	1.0	57.0	511492.9306	False		False	0.0	62.58140000002459	14.0
02	ses-035	59	images_fmri/lampshade/lampshade_02s.jpg	unseen	4226	353	2	None	894.0	12800.0	2.0	unseen-between	1	2	262.26	2.98	False	False	262.26500264002243	265.23041891498724	[['b', 264.03174952900736]]	-1.0	unseen	False	False	1.7717495290073657	2.9654162749648094	1.0	58.0	511497.4129	False		False			
02	ses-035	60	images_fmri/cellphone/cellphone_02s.jpg	seen	1526	128	2	None	294.0	4287.0	2.0	seen-between-within	3	2	266.73	2.98	False	False	266.734391467995	269.71618749399204	[['x', 267.6834041349939]]	2.0	seen	False	True	0.9534041349938888	2.981796025997028	1.0	59.0	511501.8823	False		False	0.0	125.16869999998016	28.0
