subject	session	run	hit	miss	false_alarm	correct_rej	old	new	rate_hit_minus_FA	dprime	rt_hit	rt_miss	rt_FA	rt_CR	diff_rt_hit_minus_FA	hit_within	hit_between	hit_within_between	hit_between_within	miss_within	miss_between	miss_within_between	miss_between_within	old_within	old_between	old_within_between	old_between_within	rate_Hwith_min_FA	rate_Hbetw_min_FA	rate_Hwith_betw_min_FA	rate_Hbetw_with_min_FA	rt_hit_within	rt_hit_between	rt_hit_within_between	rt_hit_between_within	diff_rt_Hwith_min_Hbetw	rt_miss_within	rt_miss_between	rt_miss_within_between	rt_miss_between_within	hit_loConf	hit_hiConf	miss_loConf	miss_hiConf	FA_loConf	FA_hiConf	CR_loConf	CR_hiConf	dprime_hiConf	rt_hit_loConf	rt_hit_hiConf	rt_miss_loConf	rt_miss_hiConf	diff_rt_hitHC_minus_hitLC	rt_FA_loConf	rt_FA_hiConf	rt_CR_loConf	rt_CR_hiConf	hit_within_loConf	hit_between_loConf	hit_within_hiConf	hit_between_hiConf	hit_within_between_loConf	hit_between_within_loConf	hit_within_between_hiConf	hit_between_within_hiConf	miss_within_loConf	miss_between_loConf	miss_within_hiConf	miss_between_hiConf	miss_within_between_loConf	miss_between_within_loConf	miss_within_between_hiConf	miss_between_within_hiConf	rt_hit_within_loConf	rt_hit_between_loConf	rt_hit_within_hiConf	rt_hit_between_hiConf	rt_hit_within_between_loConf	rt_hit_between_within_loConf	rt_hit_within_between_hiConf	rt_hit_between_within_hiConf	rt_miss_within_loConf	rt_miss_between_loConf	rt_miss_within_hiConf	rt_miss_between_hiConf	rt_miss_within_between_loConf	rt_miss_between_within_loConf	rt_miss_within_between_hiConf	rt_miss_between_within_hiConf
sub-06	ses-002	run-1	30	10	6	14	40	20	0.45	1.1988902629041225	1.4413531494140654	1.9674673280715935	2.093112928072608	2.2549799442291274	-0.6517597786585427	6	6	12	6	0	8	2	0	6	14	14	6	0.7	0.12857142857142856	0.5571428571428572	0.7	1.1163432693481425	1.8791076024373474	1.5968943579991688	1.0175261592864995	-0.7627643330892049		1.931699306964875	2.1105394124984684		1	29	1	9	3	3	3	11	1.6341935155362681	2.004946975708008	1.4219188795418605	2.300181827545167	1.9304990503523076	-0.5830280961661476	2.596804606119793	1.589421250025423	2.6513736375173003	2.146872573332353	0	1	6	5	0	0	12	6	0	1	0	7	0	0	2	0		2.004946975708008	1.1163432693481425	1.8539397277832155			1.5968943579991688	1.0175261592864995		2.300181827545167		1.879058946881976			2.1105394124984684	
sub-06	ses-002	run-2	30	10	5	15	40	20	0.5	1.3489795003921634	1.4938250598907463	2.180773615837097	2.0449695434570367	2.1381125132242884	-0.5511444835662904	8	6	8	8	0	6	4	0	8	12	12	8	0.75	0.25	0.41666666666666663	0.75	1.0589227557182292	2.137238599459327	1.8489379394054417	1.091054329872133	-1.0783158437410978		1.9783286031087262	2.4844411349296536		2	28	2	8	1	4	3	12	1.3660217462809547	2.6885054349899207	1.4084907473836625	2.78800789833069	2.028965045213699	-1.2800146876062581	2.7578600502014154	1.8667469167709418	2.7704362201690835	1.9800315864880897	0	1	8	5	1	0	7	8	0	0	0	6	2	0	2	0		2.654629907608012	1.0589227557182292	2.03376033782959	2.7223809623718296		1.7241603646959578	1.091054329872133				1.9783286031087262	2.78800789833069		2.180874371528617	
sub-06	ses-002	run-3	35	5	3	17	40	20	0.725	2.1867827698697977	1.4345054659162266	2.0911893253326435	2.704706722895305	1.967986267875223	-1.2702012569790782	10	7	8	10	0	3	2	0	10	10	10	10	0.85	0.5499999999999999	0.65	0.85	1.1534051904678342	1.9862979548318103	1.7206042218208308	1.1004719944000272	-0.8328927643639761		2.032432505289719	2.1793245553970304		3	32	2	3	2	1	0	17	2.486474860524387	2.323806797663375	1.3511334660649315	2.404745111465452	1.882152134577438	-0.9726733315984437	3.121570091247559	1.8709799861907968		1.967986267875223	0	2	10	5	1	0	7	10	0	1	0	2	1	0	1	0		2.470783600807195	1.1534051904678342	1.7925036964416563	2.029853191375736		1.6764257975987016	1.1004719944000272		2.582685155868532		1.7573061800003122	2.226805067062372		2.131844043731689	
sub-06	ses-002	run-4	37	3	6	14	40	20	0.625	1.9639319836464972	1.4364707660675047	2.225837926864628	2.1414686568578087	2.238499017442981	-0.7049978907903041	10	9	8	10	0	1	2	0	10	10	10	10	0.7	0.6000000000000001	0.5	0.7	1.1466969671249372	1.9731904220581045	1.6943612480163566	1.0368844890594509	-0.8264934549331673		2.6334619426727386	2.0220259189605727		2	35	0	3	2	4	0	14	1.9919706139489222	2.9739940166473384	1.3486122946058		2.225837926864628	-1.6253817220415385	2.4329509973526005	1.9957274866104129		2.238499017442981	0	1	10	8	1	0	7	10	0	0	0	1	0	0	2	0		3.347193984985352	1.1466969671249372	1.8014399766921985	2.600794048309325		1.564870847974504	1.0368844890594509				2.6334619426727386			2.0220259189605727	
sub-06	ses-002	run-5	35	5	1	18	40	19	0.8223684210526316	2.7702056390142777	1.3795598607744495	2.846608047485353	2.7011520862579346	2.019852668444318	-1.321592225483485	12	6	5	12	0	2	3	0	12	8	8	12	0.9473684210526316	0.6973684210526316	0.5723684210526316	0.9473684210526316	1.073020954132079	1.9644973786672004	1.9265456981658922	1.1657192428906769	-0.8914764245351214		2.781951069831848	2.8897126992543556		2	33	1	4	0	1	0	18	2.5544455497117498	2.5827390336990366	1.3066399109002322	3.477415027618406	2.6889063024520894	-1.2760991227988043		2.7011520862579346		2.019852668444318	0	1	12	5	1	0	4	12	0	0	0	2	1	0	2	0		2.8369400119781503	1.073020954132079	1.7900088520050104	2.328538055419923		1.8260476088523843	1.1657192428906769				2.781951069831848	3.477415027618406		2.5958615350723306	
sub-06	ses-002	run-6	37	3	2	17	40	19	0.8197368421052632	2.6916509912036757	1.4883878310951042	2.3008622932434037	1.7229899215698268	2.13228781419642	-0.23460209047472258	14	5	4	14	0	1	2	0	14	6	6	14	0.8947368421052632	0.7280701754385965	0.5614035087719298	0.8947368421052632	1.2421767956869998	2.352170761108399	2.419616458415984	1.1600396408353524	-1.1099939654213993		2.790645923614502	2.055970478057855		2	35	0	3	0	2	1	16	2.402468900641227	3.091658487319945	1.3967723650251134		2.3008622932434037	-1.6948861222948317		1.7229899215698268	3.345811834335336	2.0564425629377374	0	2	14	3	0	0	4	14	0	0	0	1	0	0	2	0		3.091658487319945	1.2421767956869998	1.859178943634035			2.419616458415984	1.1600396408353524				2.790645923614502			2.055970478057855	
sub-06	ses-003	run-1	31	9	0	20	40	20	0.775	2.7153790109005236	1.439515462998423	2.406729814741348		1.8171051692962645		6	7	12	6	0	7	2	0	6	14	14	6	1.0	0.5	0.8571428571428571	1.0	1.1055685551961336	1.6293032033102872	1.6450956694285075	1.1408829275767023	-0.5237346481141536		2.4168094961983835	2.371450929641724		1	30	2	7	0	0	0	20	2.634453734736136	2.466192836761476	1.405292883872988	2.6439374589919993	2.338956202098305	-1.0608999528884882				1.8171051692962645	0	0	6	7	1	0	11	6	0	2	0	5	0	0	2	0			1.1055685551961336	1.6293032033102872	2.466192836761476		1.5704504723982375	1.1408829275767023		2.6439374589919993		2.3259583110809374			2.371450929641724	
sub-06	ses-003	run-2	35	5	1	19	40	20	0.825	2.7952030073274807	1.3999413234165734	2.134465143203738	2.0179818439483626	2.0218550330714216	-0.6180405205317892	8	8	11	8	0	4	1	0	8	12	12	8	0.95	0.6166666666666666	0.8666666666666666	0.95	1.108998419046399	1.7072252213954915	1.4928830658305794	1.2558054339885707	-0.5982268023490924		2.3006809592247026	1.4696018791198782		0	35	1	4	0	1	1	18	2.7952030073274807		1.3999413234165734	2.469720897674561	2.050651204586032			2.0179818439483626	2.617843971252455	1.9887445365058087	0	0	8	8	0	0	11	8	0	1	0	3	0	0	1	0			1.108998419046399	1.7072252213954915			1.4928830658305794	1.2558054339885707		2.469720897674561		2.2443343130747495			1.4696018791198782	
sub-06	ses-003	run-3	39	0	5	15	39	20	0.75	2.9060955854570065	1.5812524250226154		2.009878086090089	2.11098713429769	-0.42862566106747346	10	9	10	10	0	0	0	0	10	9	10	10	0.75	0.75	0.75	0.75	1.324189644813536	1.9414419343736538	1.857818729400634	1.2375783424377418	-0.6172522895601178					0	39	0	0	0	5	1	14	2.9060955854570065		1.5812524250226154					2.009878086090089	3.2996828174591144	2.0260802997861598	0	0	10	9	0	0	10	10	0	0	0	0	0	0	0	0			1.324189644813536	1.9414419343736538			1.857818729400634	1.2375783424377418								
sub-06	ses-003	run-4	36	4	2	18	40	20	0.8	2.5631031310892007	1.5263323794470898	2.5561608076095705	1.892626590728767	1.97671575917138	-0.36629421128167716	10	7	9	10	0	3	1	0	10	10	10	10	0.9	0.6	0.8	0.9	1.4469051933288584	1.4038279969351664	1.9656336085001587	1.2961415271759051	0.04307719639369201		2.786115036010744	1.8662981224060504		2	34	0	4	1	1	0	18	2.6812870164452627	3.0452845954894983	1.436982249091654		2.5561608076095705	-1.6083023463978443	2.685502071380625	1.0997511100769088		1.97671575917138	0	0	10	7	2	0	7	10	0	0	0	3	0	0	1	0			1.4469051933288584	1.4038279969351664	3.0452845954894983		1.657161897931776	1.2961415271759051				2.786115036010744			1.8662981224060504	
sub-06	ses-003	run-5	34	4	2	18	38	20	0.7947368421052632	2.5336710858098197	1.450664575801178	2.275229964256285	2.7119419908523525	2.173959330982634	-1.2612774150511745	9	6	8	11	2	2	0	0	11	8	8	11	0.7181818181818183	0.65	0.9	0.9	1.3144238948822011	1.5478228314717615	1.7517610406875632	1.2901595644517427	-0.23339893658956035	2.524871025085446	2.025588903427124			1	33	0	4	1	1	0	18	2.7638120080140327	3.0990279388427666	1.4007141708605237		2.275229964256285	-1.6983137679822429	3.2638950061798084	2.1599889755248967		2.173959330982634	0	1	9	5	0	0	8	11	0	0	2	2	0	0	0	0		3.0990279388427666	1.3144238948822011	1.2375818099975604			1.7517610406875632	1.2901595644517427			2.524871025085446	2.025588903427124				
sub-06	ses-003	run-6	38	0	1	19	38	20	0.95	3.866373215289309	1.5202720910624477		1.664778938293459	2.0145104629115065	-0.14450684723101137	14	6	5	13	0	0	0	0	14	6	5	13	0.95	0.95	0.95	0.95	1.3973153979437691	2.1633068672815994	1.7363176326751728	1.272807270930368	-0.7659914693378302					3	35	0	0	0	1	0	19	3.057041205857636	3.2017143344879173	1.3761484701974074			-1.82556586429051		1.664778938293459		2.0145104629115065	0	2	14	4	1	0	4	13	0	0	0	0	0	0	0	0		3.316026482582089	1.3973153979437691	1.5869470596313544	2.973090038299574		1.4271245312690723	1.272807270930368								
sub-06	ses-004	run-1	25	15	1	19	40	20	0.575	1.963492990915848	1.7401109668731698	1.9761671066284217	1.94724908828735	1.7829297723268211	-0.2071381214141803	6	8	6	5	0	6	8	1	6	14	14	6	0.95	0.5214285714285714	0.37857142857142856	0.7833333333333333	1.1206891949971503	2.237135192155839	2.111467884381613	1.2425500316619904	-1.1164459971586889		1.9087260564168338	2.0148580217361496	2.0712860870361283	4	21	1	14	1	0	0	19	2.0226707624832683	2.7278192877769456	1.5519760486057839	2.385609045028673	1.9469212538855467	-1.1758432391711617	1.94724908828735			1.7829297723268211	0	2	6	6	2	0	4	5	0	0	0	6	1	0	7	1		2.7825535869598355	1.1206891949971503	2.0553290605545067	2.6730849885940557		1.830659332275392	1.2425500316619904				1.9087260564168338	2.385609045028673		1.9618935898372176	2.0712860870361283
sub-06	ses-004	run-2	31	9	4	15	40	19	0.5644736842105263	1.5600114067207695	1.5042158665195582	2.340257146623403	2.2854495000839314	2.083345457712811	-0.7812336335643733	8	5	10	8	0	7	2	0	8	12	12	8	0.7894736842105263	0.206140350877193	0.6228070175438597	0.7894736842105263	1.1578834068775166	1.7632618217468263	1.9062625246047982	1.1860862815380067	-0.6053784148693098		2.431002600533624	2.02264805793763		5	26	0	9	1	3	0	15	1.3884684340701015	2.3485517997741683	1.3418435716629025		2.340257146623403	-1.0067082281112658	2.3227349662780767	2.2730210113525495		2.083345457712811	0	2	8	3	3	0	7	8	0	0	0	7	0	0	2	0		1.845249476432798	1.1578834068775166	1.7086033852895117	2.684086682001748		1.5729093142918198	1.1860862815380067				2.431002600533624			2.02264805793763	
sub-06	ses-004	run-3	34	6	5	15	40	20	0.6	1.7109231396898714	1.495488703671625	2.7576170635223414	2.249450693130495	2.3801226450602226	-0.7539619894588703	10	7	7	10	0	3	3	0	10	10	10	10	0.75	0.44999999999999996	0.44999999999999996	0.75	1.1522386159896905	1.8578907544272252	2.021341927392144	1.2169600992202756	-0.7056521384375347		2.7320146052042653	2.7832195218404174		4	30	2	4	2	3	2	13	1.7109231396898714	2.5648686599731416	1.352904709498089	2.4579813909530657	2.9074348998069794	-1.2119639504750526	2.6471618509292645	1.984309921264649	2.6324689292907664	2.3413001397939848	0	2	10	5	2	0	5	10	0	1	0	2	1	0	2	0		2.443988447189327	1.1522386159896905	1.6234516773223846	2.6857488727569567		1.7555791492462192	1.2169600992202756		2.6614188861846912		2.767312464714052	2.25454389572144		3.0475573348999063	
sub-06	ses-004	run-4	30	10	4	16	40	20	0.55	1.516110983768996	1.6003530505498256	2.020339635849001	2.328675696849821	2.0737952297925974	-0.7283226462999954	10	4	6	10	0	6	4	0	10	10	10	10	0.8	0.2	0.39999999999999997	0.8	1.4384783077239973	2.6962359476089546	1.9174058723449718	1.1336429414749147	-1.2577576398849573		1.8241032282511425	2.3146942472457894		2	28	0	10	1	3	0	16	1.5608339022018305	3.06994283676147	1.4953823515347082		2.020339635849001	-1.5745604852267618	2.565271959304809	2.2498102760314915		2.0737952297925974	0	1	10	3	1	0	5	10	0	0	0	6	0	0	4	0		2.388260841369629	1.4384783077239973	2.7988943163553963	3.751624832153311		1.550562080383304	1.1336429414749147				1.8241032282511425			2.3146942472457894	
sub-06	ses-004	run-5	30	9	1	18	39	19	0.7165991902834008	2.3561721760143994	1.5308899027506506	2.7369403309292317	2.006752071380616	2.1390655697716627	-0.47586216862996555	11	3	6	10	0	5	2	2	11	8	8	12	0.9473684210526316	0.3223684210526316	0.6973684210526316	0.7807017543859649	1.2718064958398942	2.076331984202064	1.5438333908716853	1.6444829330444377	-0.8045254883621697		2.91478517723084	3.3978615808486943	1.6314069652557492	1	29	0	9	0	1	0	18	2.274308459370274	2.6531519985198884	1.4921912097930907		2.7369403309292317	-1.1609607887267976		2.006752071380616		2.1390655697716627	0	1	11	2	0	0	6	10	0	0	0	5	0	0	2	2		2.6531519985198884	1.2718064958398942	1.7879219770431516			1.5438333908716853	1.6444829330444377				2.91478517723084			3.3978615808486943	1.6314069652557492
sub-06	ses-004	run-6	34	6	3	17	40	20	0.7	2.0728667789875797	1.5904778898463534	2.169393304189052	2.3691014321645176	2.005264634525075	-0.7786235423181642	14	3	3	14	0	3	3	0	14	6	6	14	0.85	0.35	0.35	0.85	1.4032527582986052	2.083234154383341	2.7534567832946664	1.4229026303972514	-0.6799813960847356		2.237596845626834	2.1011897627512703		1	33	0	6	1	2	1	16	2.2161408566180802	3.332215194702144	1.5376979715173902		2.169393304189052	-1.7945172231847537	2.8480471611023006	2.129628567695626	2.139302072525025	1.9968872946500782	0	0	14	3	1	0	2	14	0	0	0	3	0	0	3	0			1.4032527582986052	2.083234154383341	3.332215194702144		2.4640775775909276	1.4229026303972514				2.237596845626834			2.1011897627512703	
sub-06	ses-005	run-1	26	13	1	19	39	20	0.6166666666666666	2.0755809262469302	1.6862838249940129	1.9401343169579195	2.483622007370002	1.8219134089821274	-0.7973381823759891	6	6	8	6	0	8	5	0	6	14	13	6	0.95	0.37857142857142856	0.5653846153846154	0.95	1.1252534166971817	2.3310893901189167	2.0235587549209573	1.152808761596681	-1.205835973421735		2.0627509450912522	1.7439477119445868		6	20	0	13	1	0	0	19	1.9921057778673927	2.604596246083574	1.4107900986671447		1.9401343169579195	-1.1938061474164292	2.483622007370002			1.8219134089821274	0	2	6	4	4	0	4	6	0	0	0	8	0	0	5	0		2.3463839864730787	1.1252534166971817	2.3234420919418355	2.7337023758888215		1.313415133953093	1.152808761596681				2.0627509450912522			1.7439477119445868	
sub-06	ses-005	run-2	27	13	1	19	40	20	0.625	2.0986158171213525	1.6007095796090596	2.0148506391965433	2.2251840400695784	2.1399564722964657	-0.6244744604605188	8	5	6	8	0	7	6	0	8	12	12	8	0.95	0.3666666666666667	0.45	0.95	1.2753268671035798	2.158936388015753	2.1144311396280884	1.191909366846084	-0.8836095209121733		2.03671129499163	1.9893465407689426		4	23	1	12	0	1	1	18	1.8339720532242652	2.5198574328422545	1.4408577790467647	3.091240081787106	1.9251515189806632	-1.0789996537954898		2.2251840400695784	3.02044003486634	2.0910407188203615	0	2	8	3	2	0	4	8	0	0	0	7	1	0	5	0		2.616985464096082	1.2753268671035798	1.853570337295534	2.422729401588427		1.9602820086479191	1.191909366846084				2.03671129499163	3.091240081787106		1.7689678325653098	
sub-06	ses-005	run-3	33	7	2	18	40	20	0.725	2.2161408566180802	1.4503354682344376	2.3943420791626013	1.9219720888137743	2.316571789317665	-0.47163662057933675	10	3	10	10	0	7	0	0	10	10	10	10	0.9	0.19999999999999998	0.9	0.9	1.129210040092469	2.0485537242889387	1.9308457508087173	1.1114851369857761	-0.9193436841964697		2.3943420791626013			1	32	1	6	0	2	1	17	2.1231727991175147	2.218866128921519	1.4263188850879662	2.8000691604614474	2.3267208989461268	-0.7925472438335528		1.9219720888137743	2.6665680408477783	2.295983774521776	0	0	10	3	1	0	9	10	0	1	0	6	0	0	0	0			1.129210040092469	2.0485537242889387	2.218866128921519		1.8988434865739616	1.1114851369857761		2.8000691604614474		2.3267208989461268				
sub-06	ses-005	run-4	30	10	1	18	40	19	0.6973684210526316	2.2943460088343515	1.4972054901123053	1.9839797630310083	2.3256899547577348	2.103223230573865	-0.8284844646454295	10	6	5	9	0	4	5	1	10	10	10	10	0.9473684210526316	0.5473684210526315	0.4473684210526316	0.8473684210526315	1.322565593719483	1.715435479482012	1.8816649055480965	1.3321745957268643	-0.392869885762529		2.3775187230110184	1.949534957885745	0.5820479488372854	1	29	0	10	1	0	2	16	2.535691636895307	2.136835031509399	1.475149299029647		1.9839797630310083	-0.661685732479752	2.3256899547577348		3.12942035675049	1.974948589801787	0	1	10	5	0	0	5	9	0	0	0	4	0	0	5	1		2.136835031509399	1.322565593719483	1.6311555690765345			1.8816649055480965	1.3321745957268643				2.3775187230110184			1.949534957885745	0.5820479488372854
sub-06	ses-005	run-5	35	5	5	15	40	20	0.625	1.8248391305720895	1.5041409094674274	2.079362827301021	2.508959325790407	2.2949999879201246	-1.0048184163229796	12	4	7	12	0	4	1	0	12	8	8	12	0.75	0.25	0.625	0.75	1.1672880419095444	2.04046769380569	2.259637244088309	1.221511987050376	-0.8731796518961454		2.209886031150818	1.557270011901835		4	31	0	5	2	3	0	15	1.7918484158542591	2.714505436420436	1.3479648414734908		2.079362827301021	-1.3665405949469454	2.3075273847579965	2.643247286478681		2.2949999879201246	0	1	12	3	3	0	4	12	0	0	0	4	0	0	1	0		2.7658839416503724	1.1672880419095444	1.7986622778574624	2.6973792680104576		1.9313307261466974	1.221511987050376				2.209886031150818			1.557270011901835	
sub-06	ses-005	run-6	35	4	0	20	39	20	0.8974358974358975	3.227039735806499	1.5057125312260213	2.331745295524602		2.303894153118137		14	4	4	13	0	2	2	0	14	6	6	13	1.0	0.6666666666666666	0.6666666666666666	1.0	1.3603666033063644	2.283580980300905	1.779809548854828	1.3385572330768236	-0.9232143769945407		2.3930630302429208	2.270427560806283		0	35	0	4	0	0	0	20	3.227039735806499		1.5057125312260213		2.331745295524602					2.303894153118137	0	0	14	4	0	0	4	13	0	0	0	2	0	0	2	0			1.3603666033063644	2.283580980300905			1.779809548854828	1.3385572330768236				2.3930630302429208			2.270427560806283	
sub-06	ses-006	run-1	27	12	1	19	39	20	0.6423076923076922	2.1472558503248282	1.671178324664084	2.2078410919507343	1.786940002441412	1.8446350599590093	-0.11576167777732804	6	6	9	6	0	8	4	0	6	14	13	6	0.95	0.37857142857142856	0.6423076923076922	0.95	1.2471651570002251	1.9829819695154927	2.134900456534492	1.0878046496709217	-0.7358168125152675		2.149222650527955	2.325077974796293		5	22	3	9	0	1	0	19	1.806232669685712	2.598632373809818	1.460393313494599	2.619256636301671	2.0707025771670886	-1.138239060315219		1.786940002441412		1.8446350599590093	0	2	6	4	3	0	6	6	0	2	0	6	1	0	3	0		2.833006439208994	1.2471651570002251	1.5579697346687418	2.442382996877034		1.981159186363221	1.0878046496709217		2.476827487945549		2.0400210380554236	2.904114933013915		2.1320656553904187	
sub-06	ses-006	run-2	32	8	2	18	40	20	0.7000000000000001	2.1231727991175147	1.6255973681807543	2.1481860709190412	2.9417550945282045	2.1311914820141236	-1.3161577263474502	8	6	10	8	0	6	2	0	8	12	12	8	0.9	0.4	0.7333333333333334	0.9	1.4782026672363262	1.8479307142893528	2.008709942817692	1.1273513412475615	-0.36972804705302664		2.1871729167302463	2.0312255334854257		1	31	0	8	1	1	2	16	2.400268653311942	2.452676973342875	1.5989173809174602		2.1481860709190412	-0.8537595924254149	3.405347042083747	2.478163146972662	3.002937159538263	2.022223272323606	0	1	8	5	0	0	10	8	0	0	0	6	0	0	2	0		2.452676973342875	1.4782026672363262	1.7269814624786484			2.008709942817692	1.1273513412475615				2.1871729167302463			2.0312255334854257	
sub-06	ses-006	run-3	33	7	4	16	40	20	0.625	1.7762105246463942	1.6132034631208956	2.070823293413435	2.2708989524841305	2.3361735767126097	-0.657695489363235	10	5	8	10	0	5	2	0	10	10	10	10	0.8	0.3	0.6000000000000001	0.8	1.5892143993377708	1.7877300109863277	1.8706262421608022	1.3439910297393793	-0.1985156116485569		2.1938224163055438	1.763325486183163		0	33	0	7	0	4	1	15	1.7762105246463942		1.6132034631208956		2.070823293413435			2.2708989524841305	3.5534319972991995	2.2550230153401705	0	0	10	5	0	0	8	10	0	0	0	5	0	0	2	0			1.5892143993377708	1.7877300109863277			1.8706262421608022	1.3439910297393793				2.1938224163055438			1.763325486183163	
sub-06	ses-006	run-4	35	5	5	15	40	20	0.625	1.8248391305720895	1.5730181563241157	2.291971086502076	2.54601671981811	2.190527475357059	-0.9729985634939942	10	9	6	10	0	1	4	0	10	10	10	10	0.75	0.65	0.35	0.75	1.3623279724121082	1.923365831375123	1.9713112862904894	1.2294195547103925	-0.5610378589630147		2.133399858474718	2.3316138935089157		3	32	1	4	4	1	2	13	2.486474860524387	2.9187532234191926	1.4468554937839522	2.7403258514404314	2.1798823952674873	-1.4718977296352405	2.5858734107017476	2.386589956283558	2.5619009733200073	2.1333930910550665	0	2	10	7	1	0	5	10	0	0	0	1	1	0	3	0		2.6655993890762346	1.3623279724121082	1.7112991006033766	3.425060892105108		1.680561365127566	1.2294195547103925				2.133399858474718	2.7403258514404314		2.1953765741984106	
sub-06	ses-006	run-5	35	5	2	17	40	19	0.7697368421052632	2.402468900641227	1.9037413174765456	2.1712856502533002	2.4466075611114615	2.292421592263615	-0.5428662436349159	12	7	6	10	0	1	2	2	12	8	8	12	0.8947368421052632	0.7697368421052632	0.6447368421052632	0.7280701754385965	1.776204508145652	2.486507547923497	2.4348699951171873	1.3301719207763667	-0.7103030397778449		2.6423831176757844	2.645729460716254	1.4612931060791041	2	33	1	4	1	1	0	17	2.5544455497117498	2.828127050399779	1.8477179397236223	2.6423831176757844	2.053511283397679	-0.9804091106761565	3.031497068405173	1.86171805381775		2.292421592263615	0	1	12	6	1	0	5	10	0	1	0	0	0	0	2	2		2.401739015579224	1.776204508145652	2.500635636647542	3.254515085220333		2.270940977096558	1.3301719207763667		2.6423831176757844					2.645729460716254	1.4612931060791041
sub-06	ses-006	run-6	32	7	1	19	39	20	0.7705128205128204	2.562174812570701	1.434465651810169	2.250585216794698	2.498535079956099	2.178410044218366	-1.06406942814593	13	1	4	14	1	4	2	0	14	5	6	14	0.8785714285714286	0.15000000000000002	0.6166666666666666	0.95	1.3265056074582613	2.3296010684967143	1.6020099925994842	1.4229062087195257	-1.003095461038453	2.1634200668335097	2.199208590984341	2.3969210433960058		0	32	0	7	1	0	2	17	2.8772851701592828		1.434465651810169		2.250585216794698		2.498535079956099		2.714630575180049	2.115325275869932	0	0	13	1	0	0	4	14	0	0	1	4	0	0	2	0			1.3265056074582613	2.3296010684967143			1.6020099925994842	1.4229062087195257			2.1634200668335097	2.199208590984341			2.3969210433960058	
sub-06	ses-007	run-1	25	15	3	17	40	20	0.475	1.355072753458165	1.5561863780975358	2.25017630640666	2.457230084737143	1.9226193495357733	-0.9010437066396073	6	4	9	6	0	10	5	0	6	14	14	6	0.85	0.1357142857142857	0.4928571428571429	0.85	1.124098947842917	2.227203650474549	1.9072144052717448	1.014386919339498	-1.103104702631632		2.162869305610662	2.424790307998657		3	22	3	12	3	0	1	16	2.0856253313951285	2.8298621908823614	1.3825033127177866	2.6875817743937205	2.1408249394098955	-1.4473588781645748	2.457230084737143		2.619361019134516	1.8790729951858516	0	2	6	2	1	0	8	6	0	2	0	8	1	0	4	0		2.6971971940994166	1.124098947842917	1.7572101068496817	3.095192184448252		1.7587171828746815	1.014386919339498		2.769766097068789		2.01114510774613	2.523213129043583		2.4001846027374256	
sub-06	ses-007	run-2	28	12	6	14	40	20	0.39999999999999997	1.0488010254160816	1.4671387614522666	2.0653201150894214	2.4617920843760195	2.05467378616333	-0.9946533229237529	8	4	8	8	0	8	4	0	8	12	12	8	0.7	0.033333333333333326	0.36666666666666664	0.7	1.0986038053035747	2.292689998149881	1.6332805752754203	1.256756285428997	-1.1940861928463065		2.1161413383483896	1.963677668571485		3	25	1	11	1	5	0	14	0.9931291141604568	2.494322325388604	1.343876733779906	3.31187002182007	1.951997396295726	-1.150445591608698	2.709484004974371	2.412253700256349		2.05467378616333	0	2	8	2	1	0	7	8	0	1	0	7	0	0	4	0		2.5932734727859668	1.0986038053035747	1.9921065235137956	2.296420030593879		1.5385463673727833	1.256756285428997		3.31187002182007		1.9453229549952922			1.963677668571485	
sub-06	ses-007	run-3	35	5	7	13	40	20	0.525	1.5356698467835757	1.5752007214682457	1.7013078613281265	1.95515965870449	2.1578712404691247	-0.3799589372362442	10	6	9	10	0	4	1	0	10	10	10	10	0.65	0.25	0.55	0.65	1.2884765920639054	1.915119420687357	1.9473562992943683	1.3230336112976087	-0.6266428286234516		1.6671068024635325	1.838112096786503		1	34	0	5	2	5	0	13	1.7109231396898714	2.619862098693851	1.5444753868439631		1.7013078613281265	-1.0753867118498877	2.3570156574249523	1.794417259216305		2.1578712404691247	0	0	10	6	1	0	8	10	0	0	0	4	0	0	1	0			1.2884765920639054	1.915119420687357	2.619862098693851		1.863293074369433	1.3230336112976087				1.6671068024635325			1.838112096786503	
sub-06	ses-007	run-4	37	3	8	11	40	19	0.5039473684210527	1.6387327957277233	1.4885250851914693	2.8581903394063346	2.591402266025546	2.5352451783960546	-1.1028771808340767	10	7	10	10	0	3	0	0	10	10	10	10	0.5789473684210527	0.2789473684210526	0.5789473684210527	0.5789473684210527	1.3241616249084482	1.951421575546269	1.6433952970504762	1.1739907903671232	-0.6272599506378207		2.8581903394063346			1	36	1	2	3	5	1	10	1.9151915663243013	2.784423961639405	1.4525278941790267	3.5133089542388944	2.5306310319900547	-1.3318960674603781	2.718756376902263	2.514989799499516	2.7421359729766834	2.514556098937992	0	1	10	6	0	0	10	10	0	1	0	2	0	0	0	0		2.784423961639405	1.3241616249084482	1.8125878445307464			1.6433952970504762	1.1739907903671232		3.5133089542388944		2.5306310319900547				
sub-06	ses-007	run-5	38	1	12	8	39	20	0.37435897435897436	1.695764893804088	1.3854953512392558	2.3855492019653326	1.9068970195452393	2.0552436172962185	-0.5214016683059834	12	8	7	11	0	0	1	0	12	8	8	11	0.4	0.4	0.275	0.4	1.2445380552609748	1.85228670358658	1.4772770977020255	1.1413757610321098	-0.6077486483256052			2.3855492019653326		1	37	0	1	4	8	0	8	1.8858950689821476	2.06394609451294	1.3671588446642915		2.3855492019653326	-0.6967872498486487	2.351278324127196	1.684706367254261		2.0552436172962185	0	1	12	7	0	0	7	11	0	0	0	0	0	0	1	0		2.06394609451294	1.2445380552609748	1.822049647739957			1.4772770977020255	1.1413757610321098							2.3855492019653326	
sub-06	ses-007	run-6	34	6	8	10	40	18	0.40555555555555556	1.176143688375652	1.863776427437277	1.807283698717755	2.2078163003921527	2.0115371751785296	-0.3440398729548757	13	3	4	14	1	3	2	0	14	6	6	14	0.4841269841269842	0.05555555555555558	0.2222222222222222	0.5555555555555556	1.8486289889995868	2.508507035573326	2.375540008544922	1.593467181069509	-0.659878046573739	1.3307849788665749	1.8970410410563139	1.9108970451355063		4	30	0	6	3	5	0	10	1.26394554804586	2.5533039808273283	1.7718394203186034		1.807283698717755	-0.7814645605087249	2.5891790517171245	1.9789986495971696		2.0115371751785296	1	1	12	2	2	0	2	14	0	0	1	3	0	0	2	0	2.844573993682843	2.9859729576110965	1.7656335719426488	2.269774074554441	2.191334486007687		2.5597455310821573	1.593467181069509			1.3307849788665749	1.8970410410563139			1.9108970451355063	
sub-06	ses-008	run-1	31	9	5	14	40	19	0.5118421052631579	1.3890550271401705	1.7399453716893352	2.4957842720879464	2.467685512542726	2.0441613783155206	-0.7277401408533908	6	7	12	6	0	7	2	0	6	14	14	6	0.736842105263158	0.2368421052631579	0.593984962406015	0.736842105263158	1.3760689369837398	1.9237818091256276	2.089614613056185	1.1900074799855556	-0.5477128721418878		2.2863053594316765	3.2289604663848905		2	29	2	7	2	3	1	13	1.6009080937050122	2.7823483896255468	1.6680555083833895	2.4905244874954207	2.4972870676858108	-1.1142928812421573	2.5684274435043335	2.4005242252349874	2.4629688358306936	2.0119454200451226	0	0	6	7	2	0	10	6	0	2	0	5	0	0	2	0			1.3760689369837398	1.9237818091256276	2.7823483896255468		1.9510678577423128	1.1900074799855556		2.4905244874954207		2.204617708206179			3.2289604663848905	
sub-06	ses-008	run-2	32	8	1	19	40	20	0.75	2.486474860524387	1.6031783884763724	2.4024832069873785	2.1536761665344244	1.996301720769786	-0.550497778058052	8	9	7	8	0	3	5	0	8	12	12	8	0.95	0.7	0.5333333333333333	0.95	1.2248825407028203	2.1440165487925222	1.9060223715645943	1.1080428206920616	-0.9191340080897019		2.239404417673749	2.500330480575556		3	29	0	8	1	0	1	18	2.557724110582533	2.5404724311828577	1.506216935782598		2.4024832069873785	-1.0342554954002596	2.1536761665344244		2.046266155242918	1.993525918854612	0	2	8	7	1	0	6	8	0	0	0	3	0	0	5	0		2.898589110374445	1.2248825407028203	1.928424388340544	1.8242390727996831		1.919652921358746	1.1080428206920616				2.239404417673749			2.500330480575556	
sub-06	ses-008	run-3	32	7	5	15	39	20	0.5705128205128205	1.5918109358153099	1.5190678998827947	2.6455019855499313	2.3819303226470927	2.2992239615122485	-0.862862422764298	10	6	7	9	0	4	3	0	10	10	10	9	0.75	0.35	0.44999999999999996	0.75	1.420000897407538	1.94054527600606	1.7590859508514431	1.1614767233530654	-0.520544378598522		2.563875989913946	2.754336646397912		0	32	1	6	2	3	1	14	1.953754575113018		1.5190678998827947	2.963094930648808	2.592569828033452		2.8732699060440017	2.0543706003824864	2.838891944885233	2.2606762484141787	0	0	10	6	0	0	7	9	0	0	0	4	1	0	2	0			1.420000897407538	1.94054527600606			1.7590859508514431	1.1614767233530654				2.563875989913946	2.963094930648808		2.6499575042724643	
sub-06	ses-008	run-4	33	6	4	15	39	19	0.6356275303643725	1.8246726131465016	1.7805249803716507	2.7609324693679835	1.9189186596870356	2.557769333521526	-0.13839367931538482	10	5	8	10	0	5	1	0	10	10	9	10	0.7894736842105263	0.2894736842105263	0.6783625730994152	0.7894736842105263	1.534137392044073	2.2084195117950443	1.8407450044155125	1.764789283752442	-0.6742821197509712		2.6824535503387454	3.1533270645141727		1	32	0	6	3	1	0	15	2.537177444257498	3.4006251716613747	1.729896849393847		2.7609324693679835	-1.6707283222675278	2.049682811101271	1.5266262054443305		2.557769333521526	0	1	10	4	0	0	8	10	0	0	0	5	0	0	1	0		3.4006251716613747	1.534137392044073	1.9103680968284618			1.8407450044155125	1.764789283752442				2.6824535503387454			3.1533270645141727	
sub-06	ses-008	run-5	29	10	4	15	39	19	0.5330634278002699	1.4590485810923042	1.5239409012630065	2.694640564918518	1.7756888484954878	2.3335454343160027	-0.2517479472324813	10	3	5	11	2	5	3	0	12	8	8	11	0.6228070175438597	0.16447368421052633	0.4144736842105263	0.7894736842105263	1.3016719036102273	1.9294215583801275	2.1740111198425325	1.3199315296519882	-0.6277496547699002	1.6386913251876791	2.926426498413086	3.012296835581464		1	28	1	9	0	4	1	14	1.3813549448680982	2.252717895507814	1.497913151468549	2.8631039714813227	2.675922408633762	-0.7548047440392651		1.7756888484954878	2.462836971282961	2.324310324532649	0	1	10	2	0	0	5	11	0	1	2	4	0	0	3	0		2.252717895507814	1.3016719036102273	1.7677733898162842			2.1740111198425325	1.3199315296519882		2.8631039714813227	1.6386913251876791	2.942257130146027			3.012296835581464	
sub-06	ses-008	run-6	32	5	9	11	37	20	0.4148648648648649	1.228101713870239	1.4665269008278858	2.7107882957458513	2.1692638948228637	2.1345554490522924	-0.7027369939949779	12	4	6	10	2	2	0	1	14	6	6	11	0.4071428571428571	0.21666666666666662	0.55	0.45909090909090905	1.5290248147646592	1.7955189013481205	1.1540454117457013	1.4474214973449748	-0.2664940865834613	2.8068028593063303	2.379930386543279		3.1804749870300384	0	32	0	5	4	5	0	11	1.7769301172112466		1.4665269008278858		2.7107882957458513		2.464657189846039	1.9329492588043238		2.1345554490522924	0	0	12	4	0	0	6	10	0	0	2	2	0	0	0	1			1.5290248147646592	1.7955189013481205			1.1540454117457013	1.4474214973449748			2.8068028593063303	2.379930386543279				3.1804749870300384
sub-06	ses-009	run-1	34	6	3	17	40	20	0.7	2.0728667789875797	1.6832400406108206	2.303332227071127	1.9211872482299839	2.4229158384659706	-0.23794720761916333	5	11	13	5	1	3	1	1	6	14	14	6	0.6833333333333333	0.6357142857142857	0.7785714285714286	0.6833333333333333	1.121893285751348	1.85594739827243	1.979511847862831	1.0943239097595239	-0.734054112521082	3.0290838432312057	2.329987252553306	1.8192878150939864	1.9816599464416529	7	27	1	5	1	2	2	15	1.73531375571448	2.6602366488320555	1.429944623664574	3.272191934585578	2.1095602855682367	-1.2302920251674814	2.579901037216189	1.5918303537368814	3.0080759143829425	2.344894495010374	0	2	5	9	5	0	8	5	0	1	1	2	0	0	1	1		2.5538665199279773	1.121893285751348	1.7008542601267527	2.702784700393687		1.5274663150310461	1.0943239097595239		3.272191934585578	3.0290838432312057	1.8588849115371697			1.8192878150939864	1.9816599464416529
sub-06	ses-009	run-2	34	6	8	12	40	20	0.44999999999999996	1.2897804926295895	1.508861749031967	2.2517139291763293	2.5140814411640173	2.2167934902509048	-1.0052196921320504	8	10	8	8	0	2	4	0	8	12	12	8	0.6	0.43333333333333335	0.2666666666666666	0.6	1.1382363438606244	1.8547035713195865	1.7645254373550454	1.1915211880207068	-0.7164672274589621		2.3442760944366476	2.20543284654617		4	30	3	3	7	1	3	9	2.3193433771475545	2.3358843469619797	1.3985920693079654	2.474728126525877	2.0286997318267814	-0.9372922776540142	2.534526360375542	2.370967006683344	2.839525086085002	2.009216291639539	0	4	8	6	0	0	8	8	0	1	0	1	2	0	2	0		2.3358843469619797	1.1382363438606244	1.5339163875579913			1.7645254373550454	1.1915211880207068		3.2254240703582795		1.4631281185150158	2.099380154609676		2.311485538482664	
sub-06	ses-009	run-3	32	8	9	11	40	20	0.35000000000000003	0.9672825804279883	1.6282566863298413	2.694780049324037	2.209426258934869	2.2908002870733157	-0.5811695726050279	10	6	6	10	0	4	4	0	10	10	10	10	0.55	0.14999999999999997	0.14999999999999997	0.55	1.3605176095962535	1.933224081993103	2.407407919565832	1.2455245857238775	-0.5727064723968496		2.6752171611785918	2.714342937469482		2	30	5	3	4	5	4	7	1.3489795003921634	2.8092108678817667	1.5495264075597128	2.7394021091461225	2.620409949620561	-1.2596844603220538	2.5219429302215612	1.9594129219055154	2.555076923370363	2.139785066332146	0	0	10	6	2	0	4	10	0	3	0	1	2	0	2	0			1.3605176095962535	1.933224081993103	2.8092108678817667		2.2065064454078644	1.2455245857238775		2.678989222844447		2.6639009761810257	2.830021438598635		2.5986644363403286	
sub-06	ses-009	run-4	34	6	6	13	40	19	0.5342105263157895	1.5159390428247401	1.7019577851014986	2.5020385948816917	2.4552662261327094	2.698246095363916	-0.7533084410312108	10	9	6	9	0	1	4	1	10	10	10	10	0.6842105263157895	0.5842105263157895	0.28421052631578947	0.5842105263157895	1.3411225423812865	2.0134207163916726	2.1968816184997557	1.4614736790127227	-0.6722981740103862		2.8608680820465224	2.809399354457849	0.9137660694122332	2	32	5	1	5	1	3	10	2.461477492211184	3.0738716173172023	1.6162131705880172	2.430272697448726	2.8608680820465224	-1.457658446729185	2.710874860763547	1.177223052978519	2.7223633766174395	2.6910109109878593	0	2	10	7	0	0	6	9	0	0	0	1	4	1	0	0		3.0738716173172023	1.3411225423812865	1.710434744698664			2.1968816184997557	1.4614736790127227				2.8608680820465224	2.809399354457849	0.9137660694122332		
sub-06	ses-009	run-5	32	7	3	17	39	20	0.6705128205128205	1.953754575113018	1.5691248866915712	2.2827705424172526	2.8451030413309844	2.04551389806411	-1.275978154639413	12	2	7	11	0	6	1	0	12	8	8	11	0.85	0.1	0.725	0.85	1.3086057416597996	2.691030926704407	2.2652686296190554	1.2063441103154984	-1.3824251850446074		2.2913201411565125	2.231472949981693		6	26	2	5	2	1	1	16	2.0755809262469302	2.775731174151104	1.2906772818932173	2.6837144041061407	2.1223929977416973	-1.4850538922578869	2.9021585130691676	2.7309920978546174	3.696211099624634	1.9423453229665772	0	2	12	0	4	0	3	11	0	2	0	4	0	0	1	0		2.691030926704407	1.3086057416597996		2.818081297874453		1.5281850719451928	1.2063441103154984		2.6837144041061407		2.095123009681698			2.231472949981693	
sub-06	ses-009	run-6	35	5	5	15	40	20	0.625	1.8248391305720895	1.2724140295301163	2.4876464214324976	2.528915199279794	1.9863079255421974	-1.2565011697496777	14	2	5	14	0	4	1	0	14	6	6	14	0.75	0.08333333333333331	0.5833333333333334	0.75	1.1313414423806327	2.2862084436416765	1.9500177841186506	1.0266575023106148	-1.1548670012610438		2.3142467641830455	3.181245050430306		1	34	2	3	4	1	1	14	2.6812870164452627	2.707579965591435	1.2302032667047833	2.944107465744022	2.1833390585581482	-1.477376698886652	2.5067455172538757	2.617593927383467	2.8364370727539097	1.9255844150270751	0	0	14	2	1	0	4	14	0	1	0	3	1	0	0	0			1.1313414423806327	2.2862084436416765	2.707579965591435		1.7606272387504545	1.0266575023106148		2.706969881057738		2.1833390585581482	3.181245050430306			
sub-06	ses-010	run-1	26	10	3	15	36	18	0.5555555555555556	1.5568773639514792	1.8493572227771486	2.410453933715818	2.5027319399515875	2.1732509695688886	-0.6533747171744388	5	4	11	6	0	8	2	0	5	12	13	6	0.8333333333333334	0.16666666666666666	0.6794871794871795	0.8333333333333334	1.461783174514784	2.1287232804298393	2.3146763862263082	1.133006424903866	-0.6669401059150553		2.5216995608806587	1.9654714250564562		3	23	1	9	0	3	2	13	1.3229119839412318	2.763546940485637	1.730115085684737	3.4919650554656982	2.2902860312991646	-1.0334318548009003		2.5027319399515875	2.875015521049505	2.0652871924180243	0	0	5	4	3	0	8	6	0	1	0	7	0	0	2	0			1.461783174514784	2.1287232804298393	2.763546940485637		2.1463499283790597	1.133006424903866		3.4919650554656982		2.3830902045113675			1.9654714250564562	
sub-06	ses-010	run-2	33	6	6	14	39	20	0.5461538461538462	1.5444767454942423	1.7223338809157862	3.122823411623648	2.47698293844859	2.381645750999451	-0.7546490575328038	8	8	9	8	0	4	2	0	8	12	11	8	0.7	0.36666666666666664	0.5181818181818183	0.7	1.508166592121122	1.9823132002353674	2.0117108959621874	1.350972708463667	-0.47414660811424536		3.2526875424385135	2.8630951499939172		6	27	1	5	2	4	2	12	1.3440234569462697	2.406055614153542	1.5703957179740624	2.742060108184859	3.198976072311406	-0.8356598961794797	2.7714031171798705	2.32977284908295	2.666303172111519	2.3342028474807726	1	3	7	5	2	0	7	8	0	0	0	4	1	0	1	0	2.0061509799957093	2.4194897874196406	1.4370259652818953	1.7200072479248036	2.5858566713333104		1.8476692458561528	1.350972708463667				3.2526875424385135	2.742060108184859		2.984130191802976	
sub-06	ses-010	run-3	31	8	2	17	39	19	0.689608636977058	2.0755620074890375	1.4443058373851172	2.7440106177330015	2.5223144435882645	2.41569172971389	-1.0780086062031473	10	4	8	9	0	5	2	1	10	9	10	10	0.8947368421052632	0.3391812865497076	0.6947368421052632	0.7947368421052632	1.2669701166152962	1.4187598967552209	1.952803332805631	1.2007015048133043	-0.1517897801399246		2.9138678226470995	2.4788923883438083	2.424961051940897	3	28	1	7	2	0	4	13	2.514690075360627	2.521692361831663	1.3288715669087015	2.754870023727417	2.7424592740195135	-1.1928207949229617	2.5223144435882645		2.7606237053871157	2.309558814122128	1	0	9	4	2	0	6	9	0	1	0	4	0	0	2	1	2.2985750770568814		1.152347343232898	1.4187598967552209	2.633251004219054		1.72598744233449	1.2007015048133043		2.754870023727417		2.95361727237702			2.4788923883438083	2.424961051940897
sub-06	ses-010	run-4	33	6	4	16	39	20	0.6461538461538461	1.8616974663591157	1.4528148908326166	2.3288124767939222	2.1229428863525364	2.2373561805486646	-0.6701279955199198	10	7	6	10	0	3	3	0	10	10	9	10	0.8	0.49999999999999994	0.4666666666666666	0.8	1.4535245618820247	1.7579249627249585	1.615954791704817	1.1406442289352483	-0.30440040084293374		2.648975823720292	2.008649129867552		2	31	0	6	1	3	2	14	1.8598758767176076	2.9977000904083226	1.3531448779567645		2.3288124767939222	-1.6445552124515581	2.7609782218933105	1.910264441172278	3.3675986623763947	2.0758929688589887	0	1	10	6	1	0	5	10	0	0	0	3	0	0	3	0		3.188559103012082	1.4535245618820247	1.5194859393437712	2.806841077804563		1.3777775344848675	1.1406442289352483				2.648975823720292			2.008649129867552	
sub-06	ses-010	run-5	33	6	1	19	39	20	0.7961538461538461	2.6649298597376743	1.554486325870862	2.836082104047143	2.670499076843264	2.3034590455105435	-1.116012750972402	10	5	7	11	2	3	0	1	12	8	7	12	0.7833333333333333	0.575	0.95	0.8666666666666666	1.2864908256530767	2.0377954101562494	2.1159071118491033	1.2211648784984281	-0.7513045845031727	2.9076504325866708	2.6926405779520706		3.123270025253305	3	30	2	4	1	0	1	18	2.696279901916184	2.127631276448568	1.4971718308130915	3.0301858854293897	2.7390302133560196	-0.6304594456354766	2.670499076843264		2.056996870040905	2.31715138859219	1	1	9	4	1	0	6	11	1	1	1	2	0	0	0	1	1.429641885757448	2.4667739391326933	1.2705851523081466	1.9305507779121385	2.486478004455563		2.0541452964146933	1.2211648784984281	3.2862008762359665	2.774170894622813	2.529099988937375	2.651875419616699				3.123270025253305
sub-06	ses-010	run-6	36	4	4	16	40	20	0.7	2.1231727991175147	1.4569224005275319	2.3994710397720374	3.131929247379311	2.0764715480804425	-1.6750068468517794	14	3	5	14	0	3	1	0	14	6	6	14	0.8	0.3	0.6333333333333333	0.8	1.151822500228885	2.731801315943398	2.3426092510223433	1.1725172294889177	-1.579978815714513		2.5836883862813322	1.846819000244153		3	33	0	4	3	1	0	16	2.5794429180249527	2.9495160388946524	1.3212320697668845		2.3994710397720374	-1.628283969127768	3.1326486841837684	3.12977093696594		2.0764715480804425	0	1	14	2	2	0	3	14	0	0	0	3	0	0	1	0		2.9104710292816094	1.151822500228885	2.642466459274292	2.969038543701174		1.9249897225697892	1.1725172294889177				2.5836883862813322			1.846819000244153	
sub-06	ses-011	run-1	23	17	2	18	40	20	0.475	1.4706699918173927	1.4857724156587027	2.278173476387474	2.9848629760742185	1.896053507063126	-1.4990905604155158	6	6	5	6	0	8	9	0	6	14	14	6	0.9	0.3285714285714285	0.2571428571428571	0.9	1.1207587703069066	2.0266230710347504	1.7994206657409648	1.0485618638992331	-0.9058643007278437		2.345676569938662	2.218170726564196		3	20	4	13	1	1	0	18	1.6448536269514729	2.32242078145345	1.3602751607894907	2.8608185482025146	2.0988980696751542	-0.9621456206639594	2.922107973098761	3.047617979049676		1.896053507063126	0	3	6	3	0	0	5	6	0	2	0	6	2	0	7	0		2.32242078145345	1.1207587703069066	1.7308253606160504			1.7994206657409648	1.0485618638992331		2.586090116500852		2.265538721084599	3.135546979904177		1.9560632256099157	
sub-06	ses-011	run-2	32	8	4	16	40	20	0.6000000000000001	1.6832424671458286	1.512922144234183	2.1128640341758747	2.3316270399093604	2.248547740578651	-0.8187048956751775	8	6	10	8	0	6	2	0	8	12	12	8	0.8	0.3	0.6333333333333333	0.8	1.0322684085369094	2.1627799383799355	1.9290015068054196	0.9860833311080963	-1.1305115298430262		2.2400030183792126	1.731447081565861		6	26	1	7	3	1	4	12	2.0301740933590406	2.6475915988286354	1.2510753470200784	2.875003051757816	2.003987031664169	-1.396516251808557	2.336915699640907	2.3157610607147205	2.5322559738159205	2.153978329499561	0	3	8	3	3	0	7	8	0	1	0	5	0	0	2	0		2.4965102481842103	1.0322684085369094	1.8290496285756603	2.7986729494730604		1.5562851742335735	0.9860833311080963		2.875003051757816		2.113003011703492			1.731447081565861	
sub-06	ses-011	run-3	29	11	1	19	40	20	0.6749999999999999	2.242613752993951	1.3551476817295494	2.57859231602062	1.127480897903439	2.153809837542082	0.22766678382611039	10	2	7	10	0	8	3	0	10	10	10	10	0.95	0.15000000000000002	0.6499999999999999	0.95	1.1082970619201666	2.337341871261599	1.9145634419577482	1.0139684314727824	-1.2290448093414326		2.4895463633537314	2.816048189798989		2	27	2	9	0	1	0	19	2.0986158171213525	2.7063824462890693	1.2550562176881033	3.4854073572158875	2.3770778624216713	-1.451326228600966		1.127480897903439		2.153809837542082	0	0	10	2	2	0	5	10	0	1	0	7	1	0	2	0			1.1082970619201666	2.337341871261599	2.7063824462890693		1.5978358402252197	1.0139684314727824		3.531454792022714		2.340702302115305	3.4393599224090607		2.5043923234939527	
sub-06	ses-011	run-4	30	10	2	18	40	20	0.65	1.956041315740682	1.4221447499593132	2.0699985780715933	2.675278015136719	2.134456293847825	-1.2531332651774059	10	3	7	10	0	7	3	0	10	10	10	10	0.9	0.19999999999999998	0.6	0.9	0.9690958595275869	2.3074536800384493	2.1437794971466153	1.104456638336187	-1.3383578205108624		2.1468555109841465	1.8906657346089684		0	30	0	10	1	1	1	17	2.3193433771475545		1.4221447499593132		2.0699985780715933		3.380009994506836	1.9705460357666027	3.19782015800476	2.0719054783091817	0	0	10	3	0	0	7	10	0	0	0	7	0	0	3	0			0.9690958595275869	2.3074536800384493			2.1437794971466153	1.104456638336187				2.1468555109841465			1.8906657346089684	
sub-06	ses-011	run-5	35	5	3	17	40	20	0.725	2.1867827698697977	1.2587278641292026	2.5735892982482937	2.920638135274259	2.128168053907509	-1.6619102711450566	12	6	5	12	0	2	3	0	12	8	8	12	0.85	0.6	0.475	0.85	0.9714874553680447	1.856232156753541	1.8548603897094693	0.9988275742530804	-0.8847447013854962		2.1229525470733677	2.874013799031578		0	35	1	4	2	1	0	17	2.7952030073274807		1.2587278641292026	3.4901671886444063	2.3444448256492656		2.777335605621345	3.207243194580087		2.128168053907509	0	0	12	6	0	0	5	12	0	0	0	2	1	0	2	0			0.9714874553680447	1.856232156753541			1.8548603897094693	0.9988275742530804				2.1229525470733677	3.4901671886444063		2.5659371042251635	
sub-06	ses-011	run-6	35	5	3	17	40	20	0.725	2.1867827698697977	1.2083296149117617	2.4976565456390416	2.2744099426269595	2.0926234755796544	-1.0660803277151978	14	3	4	14	0	3	2	0	14	6	6	14	0.85	0.35	0.5166666666666666	0.85	1.1378714684077684	2.0679782740275052	1.4675604939460811	1.0205113690240044	-0.9301068056197368		2.0855342610677092	3.1158399724960404		1	34	0	5	0	3	0	17	2.0728667789875797	1.8764659976959308	1.1886785448298745		2.4976565456390416	-0.6877874528660564		2.2744099426269595		2.0926234755796544	0	0	14	3	1	0	3	14	0	0	0	3	0	0	2	0			1.1378714684077684	2.0679782740275052	1.8764659976959308		1.331258659362798	1.0205113690240044				2.0855342610677092			3.1158399724960404	
sub-06	ses-012	run-1	27	13	0	20	40	20	0.675	2.413726174709934	1.6486011946642856	2.30336982213534		2.163097062587739		6	8	7	6	0	6	7	0	6	14	14	6	1.0	0.5714285714285714	0.5	1.0	1.0900051530202244	2.131881579160697	2.1339207063402443	0.9966172933578458	-1.0418764261404727		2.497278507550557	2.1371623774937256		5	22	4	9	0	0	2	18	2.0856253313951285	2.6858936080932723	1.4128529188849703	2.6037517333030693	2.169866750505238	-1.273040689208302			2.310133886337281	2.146759637726679	0	2	6	6	3	0	4	6	0	4	0	2	0	0	7	0		2.699639525413538	1.0900051530202244	1.9426289304097502	2.676729663213095		1.7268139886856062	0.9966172933578458		2.6037517333030693		2.284332056045532			2.1371623774937256	
sub-06	ses-012	run-2	27	13	1	19	40	20	0.625	2.0986158171213525	1.4697670671674954	2.0912997421851554	2.816781997680664	2.1617675209045415	-1.3470149305131687	8	4	7	8	0	8	5	0	8	12	12	8	0.95	0.2833333333333333	0.5333333333333333	0.95	1.0538330435752856	2.009469244480126	2.115571596963068	1.0507710385322637	-0.9556362009048405		2.457650692462923	1.5051382217407268		2	25	3	10	0	1	0	19	1.963492990915848	2.331923041343689	1.4007945892334	2.8948560841878255	1.8502328395843541	-0.9311284521102892		2.816781997680664		2.1617675209045415	0	1	8	3	1	0	6	8	0	3	0	5	0	0	5	0		2.235369043350218	1.0538330435752856	1.9341693115234289	2.42847703933716		2.063420689900719	1.0507710385322637		2.8948560841878255		2.1953274574279815			1.5051382217407268	
sub-06	ses-012	run-3	31	9	0	20	40	20	0.775	2.7153790109005236	1.4691414611570321	2.073020028008353		2.066331070899964		9	6	6	10	1	4	4	0	10	10	10	10	0.9	0.6	0.6	1.0	1.150792021221586	2.4982790946960534	1.6634162044525145	1.0216085309982315	-1.3474870734744673	1.301379880905131	1.8276481986045887	2.5113018941879233		3	28	0	9	0	0	1	19	2.4843644972480954	2.9618812751770016	1.3092050525120356		2.073020028008353	-1.652676222664966			2.4051129150390693	2.048500447524222	0	3	9	3	0	0	6	10	0	0	1	4	0	0	4	0		2.9618812751770016	1.150792021221586	2.0346769142151047			1.6634162044525145	1.0216085309982315			1.301379880905131	1.8276481986045887			2.5113018941879233	
sub-06	ses-012	run-4	28	12	3	17	40	20	0.5499999999999999	1.5608339022018305	1.465914409160614	2.177751844724023	2.783630348841347	1.9866100429086146	-1.317715939680733	10	3	5	10	0	7	5	0	10	10	10	10	0.85	0.15	0.35	0.85	1.0357243032455492	2.859689928690591	2.2893835639953592	1.066237281799313	-1.8239656254450418		2.1681978593553874	2.191127424240112		5	23	1	11	1	2	1	16	1.4706699918173927	2.6524735412597655	1.207966771747755	3.169107017517092	2.08762864719738	-1.4445067695120106	3.547774915695186	2.4015580654144273	1.6488390731811506	2.0077207285165812	0	2	10	1	3	0	2	10	0	0	0	7	1	0	4	0		2.8707549428939796	1.0357243032455492	2.8375599002838143	2.5069526068369563		1.9630299997329637	1.066237281799313				2.1681978593553874	3.169107017517092		1.946632525920867	
sub-06	ses-012	run-5	31	8	1	19	39	20	0.7448717948717948	2.4682961141752906	1.4888389950413885	2.243348306417464	1.9238480281829844	2.2402694687090423	-0.4350090331415959	12	3	4	12	0	5	3	0	12	8	7	12	0.95	0.325	0.5214285714285714	0.95	1.3033863417307565	2.351816571553551	1.9437831664085419	1.3068991971015953	-1.0484302298227945		2.241917949676515	2.245732234319045		3	28	1	7	0	1	0	19	2.221612191459271	2.346909920374557	1.3969028244699775	2.970609827041628	2.139453803471155	-0.9500070959045797		1.9238480281829844		2.2402694687090423	0	2	12	1	1	0	3	12	0	1	0	4	0	0	3	0		2.2697828960418747	1.3033863417307565	2.5158839225769043	2.501163969039922		1.757989565531415	1.3068991971015953		2.970609827041628		2.0597449803352372			2.245732234319045	
sub-06	ses-012	run-6	37	3	1	19	40	20	0.875	3.084385097889929	1.3091525448979575	2.579250682195027	3.020037145614623	2.1079025921068704	-1.7108846007166654	14	5	4	14	0	1	2	0	14	6	6	14	0.95	0.7833333333333333	0.6166666666666666	0.95	1.112154075077606	1.9064608783721895	2.1280230140686065	1.0588636187144693	-0.7943068032945835		2.89866307258606	2.419544486999511		2	35	0	3	0	1	1	18	2.7952030073274807	2.816301555633551	1.223029744284495		2.579250682195027	-1.5932718113490558		3.020037145614623	2.5419481372833257	2.083788950708178	0	1	14	4	1	0	3	14	0	0	0	1	0	0	2	0		2.8012111282348684	1.112154075077606	1.6827733159065197	2.8313919830322334		1.893566691080731	1.0588636187144693				2.89866307258606			2.419544486999511	
sub-06	ses-013	run-1	33	7	4	16	40	20	0.625	1.7762105246463942	1.493386912490382	2.6129468250274672	2.194472038745892	1.7883992290496848	-0.70108512625551	6	9	12	6	0	5	2	0	6	14	14	6	0.8	0.4428571428571429	0.657142857142857	0.8	1.0830723222096783	1.8104800976647277	1.6540318131446814	1.1067719237009672	-0.7274077754550494		2.459359773635866	2.99691445350647		0	33	2	5	2	2	1	15	2.2161408566180802		1.493386912490382	2.4744494247436504	2.668345785140994		2.9279290342331166	1.4610150432586675	3.148808946609499	1.6977052478790307	0	0	6	9	0	0	12	6	0	2	0	3	0	0	2	0			1.0830723222096783	1.8104800976647277			1.6540318131446814	1.1067719237009672		2.4744494247436504		2.449300006230677			2.99691445350647	
sub-06	ses-013	run-2	34	6	3	17	40	20	0.7	2.0728667789875797	1.6609442654778008	2.224169845581052	1.9278392982482921	2.346366016724529	-0.2668950327704913	8	8	10	8	0	4	2	0	8	12	12	8	0.85	0.5166666666666666	0.6833333333333333	0.85	1.1941005551815076	2.1631376194953935	2.150165982246399	1.0140674757957537	-0.9690370643138859		2.19928875207901	2.2739320325851367		1	33	1	5	0	3	0	17	1.9710226805672697	3.671646013259874	1.6000139094844048	1.884446020126344	2.2921146106719936	-2.0716321037754692		1.9278392982482921		2.346366016724529	0	1	8	7	0	0	10	8	0	1	0	3	0	0	2	0		3.671646013259874	1.1941005551815076	1.947636420386182			2.150165982246399	1.0140674757957537		1.884446020126344		2.304236329396565			2.2739320325851367	
sub-06	ses-013	run-3	35	5	2	18	40	20	0.775	2.4319009459206082	1.51869290624346	2.0749756679535025	2.091719989776614	2.0973606512281644	-0.5730270835331539	10	7	8	10	0	3	2	0	10	10	10	10	0.9	0.6	0.7000000000000001	0.9	1.102972330093381	2.3254689121246357	1.978191417455674	1.002071469306945	-1.2224965820312548		2.4732556883494277	1.4775556373596146		3	32	0	5	0	2	0	18	2.1231727991175147	2.9748686631520598	1.382176429033279		2.0749756679535025	-1.5926922341187808		2.091719989776614		2.0973606512281644	0	2	10	5	1	0	7	10	0	0	0	3	0	0	2	0		3.017252006530766	1.102972330093381	2.0487556743621833	2.8901019763946465		1.8479184804643922	1.002071469306945				2.4732556883494277			1.4775556373596146	
sub-06	ses-013	run-4	38	2	2	18	40	20	0.85	2.9264051924960723	1.4818350046559399	2.4369863319396927	2.8408625078201197	2.222607531547549	-1.3590275031641799	10	8	10	10	0	2	0	0	10	10	10	10	0.9	0.7000000000000001	0.9	0.9	0.9801727018356413	1.9943861663341522	1.947541028976439	1.1077503538131694	-1.014213464498511		2.4369863319396927			4	34	0	2	2	0	1	17	2.9963973740338443	2.4187062549591047	1.3716148575614497		2.4369863319396927	-1.047091397397655	2.8408625078201197		2.9255818557739275	2.181256100710703	0	3	10	5	1	0	9	10	0	0	0	2	0	0	0	0		2.4466339937845873	0.9801727018356413	1.723037469863891	2.334923038482657		1.9044985834757482	1.1077503538131694				2.4369863319396927				
sub-06	ses-013	run-5	35	5	3	17	40	20	0.725	2.1867827698697977	1.5536434473310212	1.9454789104461667	2.8569392522176145	2.3583595180511483	-1.3032958048865932	12	5	6	12	0	3	2	0	12	8	8	12	0.85	0.475	0.6	0.85	1.362775243918102	1.868241910934448	2.078225229581202	1.3511380664507557	-0.5054666670163459		2.193078250885008	1.574079899787904		1	34	0	5	1	2	0	17	2.31798495503839	2.939255962371832	1.5128901380651152		1.9454789104461667	-1.426365824306717	2.86610390663148	2.8523569250106817		2.3583595180511483	0	1	12	4	0	0	6	12	0	0	0	3	0	0	2	0		2.939255962371832	1.362775243918102	1.6004883980751021			2.078225229581202	1.3511380664507557				2.193078250885008			1.574079899787904	
sub-06	ses-013	run-6	37	3	2	18	40	20	0.8250000000000001	2.7210830364830567	1.530135200861341	2.17616868654887	1.8595505523681486	2.3566644393073184	-0.3294153515068077	14	4	5	14	0	2	1	0	14	6	6	14	0.9	0.5666666666666667	0.7333333333333334	0.9	1.3620311239787544	2.0983705353736912	2.156630590438845	1.3121379716055759	-0.7363394113949369		2.1344415378570574	2.259622983932495		0	37	0	3	0	2	3	15	2.7210830364830567		1.530135200861341		2.17616868654887			1.8595505523681486	2.9925313472747774	2.229491057713827	0	0	14	4	0	0	5	14	0	0	0	2	0	0	1	0			1.3620311239787544	2.0983705353736912			2.156630590438845	1.3121379716055759				2.1344415378570574			2.259622983932495	
sub-06	ses-014	run-1	33	7	2	18	40	20	0.725	2.2161408566180802	1.8343758201599116	2.2929664230346716	2.383876042366026	1.874783110088776	-0.5495002222061145	6	9	12	6	0	5	2	0	6	14	14	6	0.9	0.5428571428571429	0.7571428571428571	0.9	1.1645472145080522	2.5494995572831893	1.920893244743348	1.2584839709599815	-1.3849523427751371		2.2382867984771755	2.429665484428412		6	27	1	6	1	1	0	18	2.0986158171213525	2.5514413070678708	1.675027934180365	3.040174942016605	2.168431669871016	-0.8764133728875056	2.580476074218751	2.187276010513301		1.874783110088776	0	4	6	5	2	0	10	6	0	1	0	4	0	0	2	0		2.5909897255897505	1.1645472145080522	2.516307422637941	2.4723444700241113		1.8106029996871957	1.2584839709599815		3.040174942016605		2.037814762592318			2.429665484428412	
sub-06	ses-014	run-2	34	6	1	19	40	20	0.7999999999999999	2.6812870164452627	1.6594938070633831	2.5007960096995006	2.843433008193969	2.2205764780546544	-1.183939201130586	8	7	11	8	0	5	1	0	8	12	12	8	0.95	0.5333333333333333	0.8666666666666666	0.95	1.1905731225013712	2.250369418007987	1.9989844417572016	1.1445987093448666	-1.0597962955066158		2.524724222183224	2.3811549472808835		3	31	0	6	1	0	1	18	2.7153790109005236	2.938111317952476	1.535756628590245		2.5007960096995006	-1.402354689362231	2.843433008193969		3.0190069770812897	2.17621922810873	0	3	8	4	0	0	11	8	0	0	0	5	0	0	1	0		2.938111317952476	1.1905731225013712	1.7345629930496198			1.9989844417572016	1.1445987093448666				2.524724222183224			2.3811549472808835	
sub-06	ses-014	run-3	34	5	2	17	39	19	0.766531713900135	2.3870361382587104	1.6201592237809128	2.283419574737546	2.1739129781723108	2.2316103974510675	-0.553753754391398	9	7	8	10	1	3	1	0	10	10	9	10	0.7947368421052632	0.5947368421052631	0.783625730994152	0.8947368421052632	1.132552833557134	2.287818817411148	1.9343563401699067	1.3402855663299544	-1.1552659838540138	1.3849409103393526	2.468063631057736	2.627966070175169		3	31	0	5	0	2	1	16	2.0755620074890375	2.8732543245951354	1.4988919559601817		2.283419574737546	-1.3743623686349538		2.1739129781723108	2.855909061431888	2.192591730952266	0	2	9	5	1	0	7	10	0	0	1	3	0	0	1	0		2.750439953804019	1.132552833557134	2.1027703628539998	3.118883066177368		1.7651382364545551	1.3402855663299544			1.3849409103393526	2.468063631057736			2.627966070175169	
sub-06	ses-014	run-4	35	5	4	16	40	20	0.675	1.9919706139489222	1.8159536467960926	2.1314904251098694	2.4770558142662056	2.351645027399061	-0.661102167470113	10	6	9	10	0	4	1	0	10	10	10	10	0.8	0.39999999999999997	0.7	0.8	1.5426444950103737	2.2405792077382425	2.361456335915465	1.3435350418090861	-0.6979347127278688		1.9179727625846947	2.985561075210569		4	31	0	5	1	3	0	16	1.7918484158542591	2.6237597751617434	1.7117205979747183		2.1314904251098694	-0.9120391771870251	3.082956132888796	2.275089041392009		2.351645027399061	0	2	10	4	2	0	7	10	0	0	0	4	0	0	1	0		2.4539930677413917	1.5426444950103737	2.1338722777366677	2.793526482582095		2.2380077225821426	1.3435350418090861				1.9179727625846947			2.985561075210569	
sub-06	ses-014	run-5	37	3	4	16	40	20	0.7250000000000001	2.2811527045113706	1.683245640316526	2.200904785792036	2.7553601121902496	2.2890809220075625	-1.0721144718737237	12	6	7	12	0	2	1	0	12	8	8	12	0.8	0.55	0.675	0.8	1.3594734096527092	2.385490638415026	2.0012560721806074	1.4703892866770447	-1.0260172287623168		2.1338851690292375	2.334944019317632		1	36	0	3	4	0	0	16	3.241515550084655	2.795981159210214	1.6523363203472567		2.200904785792036	-1.1436448388629574	2.7553601121902496			2.2890809220075625	0	1	12	5	0	0	7	12	0	0	0	2	0	0	1	0		2.795981159210214	1.3594734096527092	2.3033925342559884			2.0012560721806074	1.4703892866770447				2.1338851690292375			2.334944019317632	
sub-06	ses-014	run-6	34	6	1	19	40	20	0.7999999999999999	2.6812870164452627	1.3490263352674612	2.258332103093465	2.827282981872557	2.192861619748568	-1.4782566466050957	14	3	3	14	0	3	3	0	14	6	6	14	0.95	0.45	0.45	0.95	1.0658829757145452	2.6512857977549302	1.4873363908131931	1.3234762266704059	-1.585402822040385		2.2778938007354737	2.2387704054514566		1	33	1	5	1	0	0	19	2.8945532756135344	2.5588251590728746	1.3123657648491154	2.5509630775451626	2.1998059082031256	-1.2464593942237592	2.827282981872557			2.192861619748568	0	1	14	2	0	0	3	14	0	0	0	3	1	0	2	0		2.5588251590728746	1.0658829757145452	2.697516117095958			1.4873363908131931	1.3234762266704059				2.2778938007354737	2.5509630775451626		2.0826740694046038	
sub-06	ses-015	run-1	15	25	1	19	40	20	0.325	1.3262142629870977	1.322496930440271	2.141764031982423	2.4634430217742818	1.8424978361631692	-1.1409460913340108	6	1	2	6	0	13	12	0	6	14	14	6	0.95	0.021428571428571422	0.09285714285714285	0.95	1.0665057992935136	2.091623220443722	2.7412181091308554	0.977393287022925	-1.0251174211502085		2.2147398310441253	2.0627069163322465		1	14	7	18	1	0	0	19	1.5746435181324867	2.806075000762945	1.2165270682743656	2.354185276031493	2.059155770407785	-1.5895479324885795	2.4634430217742818			1.8424978361631692	0	0	6	1	1	0	1	6	0	5	0	8	2	0	10	0			1.0665057992935136	2.091623220443722	2.806075000762945		2.6763612174987657	0.977393287022925		2.410889337539672		2.092146389484409	2.2124251222610454		2.0327632751464866	
sub-06	ses-015	run-2	26	14	3	17	40	20	0.5	1.4217538559013576	1.5565404459146346	2.456901434489661	2.512250992457079	2.046618346046002	-0.9557105465424445	8	4	6	8	0	8	6	0	8	12	12	8	0.85	0.18333333333333332	0.35	0.85	1.070238578319553	2.3029447793960536	2.3548648977279627	1.0708968079090102	-1.2327062010765006		2.410621821880345	2.518607584635415		6	20	5	9	3	0	2	15	1.9599639845400545	2.516735367774963	1.268481969356536	2.8179172897338858	2.2563370704650914	-1.2482533984184272	2.512250992457079		2.685146083831796	1.9614813143412297	0	2	8	2	4	0	2	8	0	1	0	7	4	0	2	0		3.0711355113983174	1.070238578319553	1.5347540473937897	2.239535295963286		2.5855241012573167	1.0708968079090102		2.943582067489629		2.3344846439361615	2.78650109529495		1.9828205633163445	
sub-06	ses-015	run-3	33	7	6	14	40	20	0.5249999999999999	1.4589898037815208	1.6296215947469095	2.3109984520503457	2.170894560813899	2.4912643139702966	-0.5412729660669895	10	7	6	10	0	3	4	0	10	10	10	10	0.7	0.39999999999999997	0.3	0.7	1.2287604894638051	2.387004761014669	2.092189896901447	1.222773502349859	-1.158244271550864		2.025053873062135	2.5254568862915043		7	26	1	6	3	3	0	14	1.4217538559013576	2.4217098876408154	1.416367054352396	2.381861801147462	2.2991878938674932	-1.0053428332884193	2.4712235355377175	1.8705655860900805		2.4912643139702966	0	5	10	2	2	0	4	10	0	1	0	2	0	0	4	0		2.418403688430785	1.2287604894638051	2.3085074424743794	2.429975385665891		1.9232971525192255	1.222773502349859		2.381861801147462		1.846649909019471			2.5254568862915043	
sub-06	ses-015	run-4	30	10	2	17	40	19	0.6447368421052632	1.9266092704613014	1.6244188658396381	2.7957365016937272	2.1516175794601473	2.4165291219599148	-0.5271987136205092	10	4	6	10	0	6	4	0	10	10	10	10	0.8947368421052632	0.2947368421052632	0.49473684210526314	0.8947368421052632	1.491923482894893	2.2806100463867187	2.211318397521969	1.142298057556153	-0.7886865634918256		2.850496096611026	2.7135971093177798		1	29	4	6	0	2	2	15	1.849879646307698	1.4669570159912126	1.6298485847999287	3.1541938781738317	2.5567649173736577	0.16289156880871603		2.1516175794601473	3.270092625617984	2.3027206548055057	0	0	10	4	1	0	5	10	0	3	0	3	1	0	3	0			1.491923482894893	2.2806100463867187	1.4669570159912126		2.36019067382812	1.142298057556153		3.157897780736292		2.5430944124857597	3.1430821704864504		2.5704354222615557	
sub-06	ses-015	run-5	31	6	5	15	37	20	0.5878378378378378	1.6601001670633515	1.4249888195530085	2.831324218114215	3.03179751777649	2.456576972325645	-1.6068086982234817	12	3	4	12	0	2	4	0	12	5	8	12	0.75	0.35	0.25	0.75	1.4584451977411923	1.623076937993367	1.8353036761283974	1.205238792896272	-0.16463174025217464		2.9396258783340485	2.7771733880042984		0	31	1	5	1	4	2	13	1.8272316504401838		1.4249888195530085	3.4456118011474643	2.7084667015075654		3.594425792694093	2.8911404490470893	2.8928669071197533	2.3894554438957822	0	0	12	3	0	0	4	12	0	1	0	1	0	0	4	0			1.4584451977411923	1.623076937993367			1.8353036761283974	1.205238792896272		3.4456118011474643		2.4336399555206327			2.7771733880042984	
sub-06	ses-015	run-6	31	9	1	18	40	19	0.7223684210526315	2.375271284998739	1.5221373884139562	2.6283590560489185	0.8927991008758553	2.358409253756206	0.6293382875381008	14	2	4	11	0	4	2	3	14	6	6	14	0.9473684210526316	0.2807017543859649	0.6140350877192982	0.7330827067669172	1.2819773088182755	2.2498010540008546	1.8003211069107135	1.5943354710665654	-0.9678237451825791		2.815447292327878	2.5457870864868184	2.4339560540517056	1	30	4	5	0	1	3	15	2.2943460088343515	2.274430065155029	1.4970609658559202	2.841901574134827	2.4575250415801917	-0.7773690992991089		0.8927991008758553	2.4795397917429653	2.3341831461588542	0	1	14	1	0	0	4	11	0	2	0	2	2	0	0	3		2.274430065155029	1.2819773088182755	2.22517204284668			1.8003211069107135	1.5943354710665654		3.138016061782835		2.492878522872921	2.5457870864868184			2.4339560540517056
sub-06	ses-016	run-1	24	16	5	15	40	20	0.35	0.9278368533318815	1.51602754712105	2.4036193901300433	2.308953956604005	2.252894144694012	-0.7929264094829551	6	5	7	6	0	9	7	0	6	14	14	6	0.75	0.10714285714285715	0.25	0.75	1.1294964996973675	2.037549974441533	1.9080705193110887	1.0105731042226178	-0.9080534747441655		2.3927448601192927	2.417600928715294		2	22	5	11	4	1	1	14	1.770514973806547	2.17398940563202	1.4562128327109618	2.9400277500152603	2.159797408364035	-0.7177765729210583	2.366295466423039	2.07958791732787	2.5492719936370847	2.2317242983409353	0	1	6	4	1	0	6	6	0	2	0	7	3	0	4	0		2.436446962356568	1.1294964996973675	1.9378257274627746	1.9115318489074724		1.9074936310450248	1.0105731042226178		3.1591994762420796		2.1737578269413533	2.7939132658640475		2.1353666758537284	
sub-06	ses-016	run-2	28	12	1	19	40	20	0.6499999999999999	2.1692541396595137	1.529339984485081	2.3078908093770383	1.6347210311889668	2.3459310381036076	-0.10538104670388582	8	6	6	8	0	6	6	0	8	12	12	8	0.95	0.45	0.45	0.95	1.0107225406169897	2.266030863126117	1.8621292448043834	1.245847324132919	-1.2553083225091273		2.4255195490519186	2.1902620697021575		0	28	1	11	0	1	2	17	2.1692541396595137		1.529339984485081	3.085755052566526	2.2371758781779936			1.6347210311889668	2.8055560779571422	2.291857504003192	0	0	8	6	0	0	6	8	0	1	0	5	0	0	6	0			1.0107225406169897	2.266030863126117			1.8621292448043834	1.245847324132919		3.085755052566526		2.2934724483489974			2.1902620697021575	
sub-06	ses-016	run-3	36	4	1	19	40	20	0.85	2.9264051924960732	1.6975853241814518	2.0043973660469057	2.1370029830932538	2.56302932337711	-0.43941765891180196	10	7	9	10	0	3	1	0	10	10	10	10	0.95	0.6499999999999999	0.85	0.95	1.4040903205871622	2.2449040903363864	2.022492822011314	1.3155404434204108	-0.8408137697492242		1.7369790999094663	2.806652164459223		2	34	0	4	0	1	1	18	2.6812870164452627	3.148078670501702	1.6122621861626134		2.0043973660469057	-1.5358164843390887		2.1370029830932538	2.922483949661255	2.54305962191688	0	1	10	6	1	0	8	10	0	0	0	3	0	0	1	0		3.10558518409729	1.4040903205871622	2.101457241376236	3.1905721569061143		1.876482905149464	1.3155404434204108				1.7369790999094663			2.806652164459223	
sub-06	ses-016	run-4	33	7	6	14	40	20	0.5249999999999999	1.4589898037815208	1.396437836849329	2.793035817827499	2.4868205865224238	2.5663921410696853	-1.0903827496730947	10	5	8	10	0	5	2	0	10	10	10	10	0.7	0.2	0.5	0.7	1.0884030790328978	2.2484711856842052	1.7843829500675181	0.9680998296737713	-1.1600681066513074		2.6983641433715833	3.02971500396729		1	32	3	4	3	3	1	13	1.8780546230667041	2.817249050140383	1.3520374864339837	3.001443980534873	2.6367296957969693	-1.4652115637063992	2.803415279388434	2.1702258936564136	3.160056829452514	2.5207256265786984	0	1	10	4	0	0	8	10	0	3	0	2	0	0	2	0		2.817249050140383	1.0884030790328978	2.106276719570161			1.7843829500675181	0.9680998296737713		3.001443980534873		2.2437443876266485			3.02971500396729	
sub-06	ses-016	run-5	34	6	3	17	40	20	0.7	2.0728667789875797	1.446865349376904	2.911232538223269	1.5975446732838954	2.411820951910581	-0.15067932390699146	12	2	8	12	0	6	0	0	12	8	8	12	0.85	0.1	0.85	0.85	1.3501030659675617	2.2697551345825246	1.8101408302783932	1.1642956813176502	-0.919652068614963		2.911232538223269			1	33	0	6	0	3	0	17	1.9710226805672697	2.0632961082458507	1.4281856294111783		2.911232538223269	-0.6351104788346724		1.5975446732838954		2.411820951910581	0	1	12	1	0	0	8	12	0	0	0	6	0	0	0	0		2.0632961082458507	1.3501030659675617	2.4762141609191985			1.8101408302783932	1.1642956813176502				2.911232538223269				
sub-06	ses-016	run-6	36	4	4	16	40	20	0.7	2.1231727991175147	1.5146758392122068	2.127109277248386	2.326826295852661	2.518464650511743	-0.8121504566404543	13	3	6	14	1	3	0	0	14	6	6	14	0.7285714285714286	0.3	0.8	0.8	1.2639341735839869	1.8865167363484876	2.0495991945266696	1.4385743270601528	-0.6225825627645007	1.6814140319824276	2.275674359003705			1	35	0	4	0	4	1	15	1.9919706139489222	2.9315271282196065	1.4741943738119956		2.127109277248386	-1.457332754407611		2.326826295852661	3.717360982894903	2.438538228352866	0	0	13	3	1	0	5	14	0	0	1	3	0	0	0	0			1.2639341735839869	1.8865167363484876	2.9315271282196065		1.873213607788082	1.4385743270601528			1.6814140319824276	2.275674359003705				
sub-06	ses-017	run-1	26	14	2	18	40	20	0.55	1.6668720319521682	1.716107093370878	2.418133058547974	3.0221894550323505	1.8459159734514057	-1.3060823616614725	6	6	8	6	0	8	6	0	6	14	14	6	0.9	0.3285714285714285	0.4714285714285714	0.9	1.1970334752400664	2.2673918199539216	2.153605543375016	1.1005647182464624	-1.0703583447138552		2.3545611810684273	2.5028955618540363		6	20	0	14	1	1	0	18	1.6448536269514729	2.7423376131057773	1.4082379374504082		2.418133058547974	-1.3340996756553691	3.3398039436340383	2.704574966430662		1.8459159734514057	0	3	6	3	3	0	5	6	0	0	0	8	0	0	6	0		2.7963162962595667	1.1970334752400664	1.7384673436482767	2.688358929951988		1.8327535114288325	1.1005647182464624				2.3545611810684273			2.5028955618540363	
sub-06	ses-017	run-2	28	12	1	19	40	20	0.6499999999999999	2.1692541396595137	1.5552832726069872	2.279269471168517	3.169053163528446	2.2413366905011656	-1.6137698909214586	8	4	8	8	0	8	4	0	8	12	12	8	0.95	0.2833333333333333	0.6166666666666666	0.95	1.0223246502876284	2.4580778551101723	2.1092789053916947	1.082848970890046	-1.4357532048225439		2.264326258897783	2.309155895709985		4	24	1	11	0	1	1	18	1.8982007300872725	2.2893293833732677	1.4329422541459405	2.879253187179572	2.2247254969856938	-0.8563871292273273		3.169053163528446	3.287447042465232	2.183219448725384	0	3	8	1	1	0	7	8	0	1	0	7	0	0	4	0		2.38519510587057	1.0223246502876284	2.6767261028289795	2.0017322158813613		2.1246427181788854	1.082848970890046		2.879253187179572		2.176479554857527			2.309155895709985	
sub-06	ses-017	run-3	32	8	3	17	40	20	0.65	1.8780546230667041	1.6467505505681046	2.4750567722320573	2.7585678831736353	2.2375677591211662	-1.1118173326055307	10	4	8	10	0	6	2	0	10	10	10	10	0.85	0.25	0.65	0.85	1.1949551782608023	2.8348020052909852	2.3247720420360554	1.080908147811894	-1.639846827030183		2.5761018943786618	2.1719214057922436		5	27	1	7	3	0	0	17	2.413726174709934	2.7841083221435525	1.4361287410170958	2.1554999828338737	2.5207077421460835	-1.3479795811264568	2.7585678831736353			2.2375677591211662	0	2	10	2	3	0	5	10	0	0	0	6	1	0	1	0		2.90070651054382	1.1949551782608023	2.7688975000381504	2.706376196543374		2.095809549331664	1.080908147811894				2.5761018943786618	2.1554999828338737		2.188342828750613	
sub-06	ses-017	run-4	30	10	6	14	40	20	0.45	1.1988902629041225	1.3946673536300653	2.7723841695785536	2.3464308055241965	2.2188505070550133	-0.9517634518941311	10	1	9	10	0	9	1	0	10	10	10	10	0.7	-0.19999999999999998	0.6000000000000001	0.7	1.0285914077758758	1.2235120391845695	2.0041078779432544	1.2293623590469345	-0.19492063140869376		2.8059876219431583	2.469953098297111		2	28	3	7	4	2	1	13	1.805952078252641	2.062636008262629	1.3469553068705964	3.182895580927535	2.596450707571847	-0.7156807013920328	2.517455465793617	2.0043814849853554	3.1753768825531097	2.1452715550936214	0	0	10	1	1	1	8	9	0	3	0	6	0	0	1	0			1.0285914077758758	1.2235120391845695	2.13060709953308	1.9946649169921784	1.9882954752445263	1.144328741497463		3.182895580927535		2.617533642450969			2.469953098297111	
sub-06	ses-017	run-5	33	7	2	18	40	20	0.725	2.2161408566180802	1.689026882865214	2.552237843104773	2.767851433753968	2.3494449588987565	-1.0788245508887542	12	3	6	12	0	5	2	0	12	8	8	12	0.9	0.275	0.65	0.9	1.2434647258122802	2.965244884490962	2.7268990389506045	1.2965984614690154	-1.7217801586786818		2.276558841705321	3.241435346603403		5	28	0	7	2	0	0	18	2.4843644972480954	2.9999360923767084	1.4549359525953043		2.552237843104773	-1.5450001397814042	2.767851433753968			2.3494449588987565	0	2	12	1	3	0	3	12	0	0	0	5	0	0	2	0		3.3704143953323324	1.2434647258122802	2.1549058628082207	2.752950557072959		2.70084752082825	1.2965984614690154				2.276558841705321			3.241435346603403	
sub-06	ses-017	run-6	36	4	3	16	40	19	0.7421052631578948	2.2846995332071343	1.6108559711774202	2.7820438361167934	2.340714384714763	2.1802879047393815	-0.7298584135373427	14	5	3	14	0	1	3	0	14	6	6	14	0.8421052631578947	0.6754385964912282	0.34210526315789475	0.8421052631578947	1.1219210161481608	3.0718455123901465	2.3387800725301084	1.4220252111979872	-1.9499244962419857		2.474745025634768	2.884476772944135		5	31	0	4	1	2	0	16	2.007534546625689	2.9903858814239497	1.3883511469441092		2.7820438361167934	-1.6020347344798405	2.49527297019958	2.2634350919723545		2.1802879047393815	0	3	14	2	1	1	2	13	0	0	0	1	0	0	3	0		3.3653694407145207	1.1219210161481608	2.631559619903584	2.7962450313568183	2.0595760536193666	2.1100475931167537	1.372982838704035				2.474745025634768			2.884476772944135	
sub-06	ses-018	run-1	24	16	1	19	40	20	0.5499999999999999	1.8982007300872725	1.608094229300816	2.2862973451614423	3.4093618297576995	1.871179272501093	-1.8012676004568835	6	6	6	6	0	8	8	0	6	14	14	6	0.95	0.37857142857142856	0.37857142857142856	0.95	1.1020575618743866	2.167213190396632	1.9914688714345286	1.1716372934977173	-1.0651556285222454		2.4492254006862675	2.123369289636617		4	20	3	13	1	0	0	19	1.9599639845400545	2.4326626086235112	1.4431805534362772	2.9689286136627158	2.128767052430379	-0.9894820551872341	3.4093618297576995			1.871179272501093	0	2	6	4	2	0	4	6	0	1	0	7	2	0	6	0		2.7180578422546446	1.1020575618743866	1.8917908644676258	2.147267374992378		1.913569619655604	1.1716372934977173		3.650712919235232		2.277584326607844	2.628036460876458		1.9551468992233367	
sub-06	ses-018	run-2	33	6	2	17	39	19	0.7408906882591093	2.272195753051421	1.5874240918592988	2.6879070885976133	2.108343615531922	2.2988250872668132	-0.5209195236726232	8	6	12	7	0	6	0	0	8	12	12	7	0.8947368421052632	0.39473684210526316	0.8947368421052632	0.8947368421052632	1.2469605970382727	2.1681713501612343	1.8076319130261742	1.101242742538455	-0.9212107531229616		2.6879070885976133			4	29	1	5	1	1	0	17	2.274308459370274	2.5705377244949315	1.4518222114957633	3.516748123168945	2.5221388816833468	-1.1187155129991682	2.2483821201324474	1.9683051109313965		2.2988250872668132	0	2	8	4	2	0	10	7	0	1	0	5	0	0	0	0		2.3533870172500606	1.2469605970382727	2.075563516616821	2.7876884317398023		1.6116206092834484	1.101242742538455		3.516748123168945		2.5221388816833468				
sub-06	ses-018	run-3	34	6	4	16	40	20	0.6499999999999999	1.8780546230667041	1.4416126155853295	2.333263408342997	2.945926070213318	2.207585306167603	-1.5043134546279884	10	5	9	10	0	5	1	0	10	10	10	10	0.8	0.3	0.7	0.8	1.1619722576141376	1.799397094726561	1.9738430457645006	1.0633533468246512	-0.6374248371124234		2.492286073684691	1.5381500816345266		3	31	1	5	3	1	0	16	2.400268653311942	2.6971097151438435	1.3201128962732152	3.404606962203978	2.1189946975708005	-1.3769968188706283	2.951643387476603	2.928774118423462		2.207585306167603	0	1	10	4	2	0	7	10	0	1	0	4	0	0	1	0		3.027095117568976	1.1619722576141376	1.4924725890159571	2.532117013931277		1.8143361977168502	1.0633533468246512		3.404606962203978		2.264205851554869			1.5381500816345266	
sub-06	ses-018	run-4	31	9	1	19	40	20	0.725	2.400268653311942	1.4146861473206558	2.238857025570338	2.3438112068176338	2.186123585951959	-0.929125059496978	9	5	7	10	1	5	3	0	10	10	10	10	0.85	0.45	0.6499999999999999	0.95	1.1946648841434084	1.882591728210457	1.7565316854204436	1.1394606170654256	-0.6879268440670485	1.8182650566101013	1.9648717346191418	2.8356965001424115		2	29	1	8	0	1	0	19	2.242613752993951	2.433130097389217	1.3444486335228238	2.45231019973755	2.212175378799437	-1.088681463866393		2.3438112068176338		2.186123585951959	0	1	9	4	1	0	6	10	0	1	1	4	0	0	3	0		2.140882091522215	1.1946648841434084	1.8180191373825174	2.7253781032562188		1.5950572824478144	1.1394606170654256		2.45231019973755	1.8182650566101013	1.8430121183395398			2.8356965001424115	
sub-06	ses-018	run-5	34	6	2	18	40	20	0.75	2.31798495503839	1.4971534176433785	2.3828249216079733	3.147238435745237	2.1085431570477002	-1.6500850181018585	12	4	6	12	0	4	2	0	12	8	8	12	0.9	0.4	0.65	0.9	1.379875833193461	2.1764759016037036	1.6537626202901201	1.3096855727831498	-0.7966000684102426		2.565319383144381	2.0178359985351584		2	32	0	6	2	0	0	18	2.801585218112969	2.5888994359970106	1.4289192914962765		2.3828249216079733	-1.159980144500734	3.147238435745237			2.1085431570477002	0	1	12	3	1	0	5	12	0	0	0	4	0	0	2	0		2.3991079235076924	1.379875833193461	2.1022652276357072	2.7786909484863287		1.4287769546508784	1.3096855727831498				2.565319383144381			2.0178359985351584	
sub-06	ses-018	run-6	30	10	1	18	40	19	0.6973684210526316	2.2943460088343515	1.4538837788899746	2.140635130882263	2.662758884429932	2.2036172686682836	-1.2088751055399576	14	1	3	12	0	5	3	2	14	6	6	14	0.9473684210526316	0.11403508771929824	0.4473684210526316	0.8045112781954886	1.3930225311006814	2.8540540122985902	2.1881396643320734	1.2246437438329074	-1.4610314811979088		2.4093329238891625	1.8523599561055446	1.9013034105300903	1	29	1	9	1	0	0	18	2.535691636895307	2.8540540122985902	1.4056020467034707	3.393571844100954	2.0014199405246305	-1.4484519655951196	2.662758884429932			2.2036172686682836	0	1	14	0	0	0	3	12	0	1	0	4	0	0	3	2		2.8540540122985902	1.3930225311006814				2.1881396643320734	1.2246437438329074		3.393571844100954		2.163273193836215			1.8523599561055446	1.9013034105300903
sub-06	ses-027	run-1	27	13	4	16	40	20	0.47500000000000003	1.2953834237427937	1.5702199927153504	2.7048386867058714	2.468870639015808	2.1997870170111127	-0.8986506463004578	6	6	9	6	0	8	5	0	6	14	14	6	0.8	0.22857142857142854	0.4428571428571429	0.8	0.9678164128485728	2.0999292413389763	2.003229883787646	0.9933994873500586	-1.1321128284904036		2.641665539516981	2.8059157222080957		6	21	3	10	3	1	2	14	1.7075604048946866	2.5760667911730812	1.2828351931559987	2.857404891009594	2.6590688254147543	-1.2932315980170825	2.4586994290161734	2.499384269014712	2.5913320570066567	2.1438520112974637	0	3	6	3	3	0	6	6	0	0	0	8	3	0	2	0		2.4908972486709993	0.9678164128485728	1.7089612340069535	2.6612363336751628		1.6742266588438877	0.9933994873500586				2.641665539516981	2.857404891009594		2.728681969005848	
sub-06	ses-027	run-2	35	5	1	19	40	20	0.825	2.7952030073274807	1.6928895109687012	2.10074882519338	2.749151022989537	2.55887911715447	-1.0562615120208356	8	9	10	8	0	3	2	0	8	12	12	8	0.95	0.7	0.7833333333333333	0.95	0.9931087333751218	2.517170527881766	2.1357837844965974	0.911736302625213	-1.5240617945066441		2.100373817661307	2.1013113364914897		8	27	0	5	1	0	3	16	2.413726174709934	2.5389779039968596	1.442196653775173		2.10074882519338	-1.0967812502216867	2.749151022989537		3.4257927819970035	2.3963328049964945	0	6	8	3	2	0	8	8	0	0	0	3	0	0	2	0		2.4601116721625096	0.9931087333751218	2.631288239320279	2.77557659949991		1.9758355807457693	0.911736302625213				2.100373817661307			2.1013113364914897	
sub-06	ses-027	run-3	30	10	3	17	40	20	0.6	1.7109231396898714	1.474829430728494	2.6170060632055367	2.2596715583345692	2.4848392148217995	-0.7848421276060753	10	3	7	10	0	7	3	0	10	10	10	10	0.85	0.15	0.5499999999999999	0.85	0.9874373169983741	2.724322877997379	2.1084064451420477	1.1438696001884607	-1.736885560999005		2.609553389003765	2.634395636343003		3	27	2	8	2	1	4	13	2.0986158171213525	2.4773520753326985	1.3634380257724712	3.2098866340075602	2.468785920505031	-1.1139140495602273	2.768591132496951	1.2418324100098062	2.622939251245988	2.4423468959220487	0	1	10	2	2	0	5	10	0	2	0	5	0	0	3	0		2.722188378996222	0.9874373169983741	2.725390127497958	2.354933923500937		2.0097954537984917	1.1438696001884607		3.2098866340075602		2.3694200910022474			2.634395636343003	
sub-06	ses-027	run-4	34	6	4	16	40	20	0.6499999999999999	1.8780546230667041	1.650259346595883	2.61655088734523	2.7874654412601423	2.4299411398228403	-1.1372060946642593	10	6	8	10	0	4	2	0	10	10	10	10	0.8	0.39999999999999997	0.6000000000000001	0.8	1.082779738406071	2.5941486563389975	2.393490429884989	1.0568205023085424	-1.5113689179329266		2.7922054060138324	2.2652418500080245		5	29	4	2	3	1	2	14	2.242613752993951	2.8315316864058895	1.4465917018010546	2.441595056762173	2.966462548511343	-1.384939984604835	2.843460536676384	2.6194801550114164	3.1750956195191264	2.323490499866228	0	3	10	3	2	0	6	10	0	2	0	2	2	0	0	0		2.9379939783376194	1.082779738406071	2.250303334340375	2.671838248508294		2.3007078236772203	1.0568205023085424		2.617948263516322		2.966462548511343	2.2652418500080245			
sub-06	ses-027	run-5	33	7	2	18	40	20	0.725	2.2161408566180802	1.2408413062015702	2.752163216992382	2.5508091149816785	2.389919069485562	-1.3099678087801083	12	4	5	12	0	4	3	0	12	8	8	12	0.9	0.4	0.525	0.9	1.1843020612413728	1.3620821857432035	1.4743788113878096	1.1596596308202896	-0.17778012450183067		2.7169916844955893	2.7990585936547725		0	33	2	5	1	1	1	17	2.5794429180249527		1.2408413062015702	3.0213041064917405	2.644506861192639		2.5438454369816483	2.5577727929817087	2.7876359949889604	2.3665239562206564	0	0	12	4	0	0	5	12	0	1	0	3	1	0	2	0			1.1843020612413728	1.3620821857432035			1.4743788113878096	1.1596596308202896		3.614622436003998		2.4177814339927863	2.427985776979483		2.9845950019924175	
sub-06	ses-027	run-6	37	3	6	14	40	20	0.625	1.9639319836464972	1.2653220159415703	2.232048466670103	2.412250423161511	2.2648765941390834	-1.1469284072199406	14	5	4	14	0	1	2	0	14	6	6	14	0.7	0.5333333333333334	0.36666666666666664	0.7	0.8682477814251826	2.1297937505925093	2.166660079491841	1.096131184211117	-1.2615459691673268		3.343293686999246	1.6764258565055314		3	34	0	3	4	2	0	14	2.31798495503839	2.4386216276643444	1.1617955796130903		2.232048466670103	-1.276826048051254	2.5817257272455	2.0732998149935327		2.2648765941390834	0	2	14	3	1	0	3	14	0	0	0	1	0	0	2	0		2.1054225539980713	0.8682477814251826	2.146041214988801	3.10501977499689		1.8538735143234912	1.096131184211117				3.343293686999246			1.6764258565055314	
sub-06	ses-028	run-1	33	7	3	17	40	20	0.6749999999999999	1.9710226805672697	1.686328773817162	2.852019924844751	2.747053244671163	2.178372927580632	-1.0607244708540011	6	10	11	6	0	4	3	0	6	14	14	6	0.85	0.5642857142857143	0.6357142857142857	0.85	0.9713857701521723	1.9591941735912108	2.1803861160004874	1.0407243171893061	-0.9878084034390385		2.8106239260046375	2.9072145899649016		4	29	2	5	1	2	1	16	1.8793116915870787	2.759139989009131	1.5383548131010283	2.9845849930262167	2.7989938975721644	-1.2207851759081025	2.357671893001534	2.941743920505978	2.9393419070029694	2.1308123663667358	0	3	6	7	1	0	10	6	0	2	0	2	0	0	3	0		2.440507029665946	0.9713857701521723	1.7529172352734677	3.715038867038686		2.0269208408966675	1.0407243171893061		2.9845849930262167		2.6366628589830583			2.9072145899649016	
sub-06	ses-028	run-2	35	5	4	16	40	20	0.675	1.9919706139489222	1.5899425719019822	2.600618062438448	2.4125257600250194	2.518464314463785	-0.8225831881230372	8	9	10	8	0	3	2	0	8	12	12	8	0.8	0.55	0.6333333333333333	0.8	1.0757189621590069	2.2230391461422885	1.7656203282983043	1.1723353401292105	-1.1473201839832816		2.7076681023603335	2.440043002555619		2	33	3	2	2	2	1	15	2.2161408566180802	2.4948231930378846	1.5351013221361698	2.6920513563727333	2.46346812153702	-0.9597218709017148	2.560458183509766	2.2645933365402726	2.7859439280023803	2.5006323402278787	0	1	8	8	1	0	9	8	0	2	0	1	1	0	1	0		2.719523052074948	1.0757189621590069	2.160978657900706	2.2701233340008216		1.7095644387758024	1.1723353401292105		2.9442184700164926		2.234567367048016	2.1877171290852147		2.692368876026024	
sub-06	ses-028	run-3	35	5	2	17	40	19	0.7697368421052632	2.402468900641227	1.8009276493396624	2.654130614775231	3.021982794490185	2.5683231688781163	-1.2210551451505227	10	7	8	10	0	3	2	0	10	10	10	10	0.8947368421052632	0.5947368421052631	0.6947368421052632	0.8947368421052632	1.2214002967919229	2.360863104853777	2.475878005258856	1.4485398982921673	-1.139462808061854		2.8294001523110404	2.3912263084715164		3	32	0	5	1	1	1	16	2.461477492211184	3.0486156546355496	1.683956898843173		2.654130614775231	-1.3646587557923766	2.5929438790027177	3.451021709977653	2.8511477889725967	2.5506466301222113	0	1	10	6	2	0	6	10	0	0	0	3	0	0	2	0		2.822157270954904	1.2214002967919229	2.2839807438369224	3.161844846475873		2.24722239151985	1.4485398982921673				2.8294001523110404			2.3912263084715164	
sub-06	ses-028	run-4	32	5	2	18	37	20	0.7648648648648649	2.3839919325597654	1.5222488283636642	3.0925239440025747	2.497371832490927	2.589147489301137	-0.9751230041272629	9	5	8	10	0	5	0	0	9	10	8	10	0.9	0.4	0.9	0.9	1.6212156432432425	2.2627428884087144	1.4468686137831541	1.1232358366139266	-0.6415272451654719		3.0925239440025747			1	31	0	5	0	2	3	15	2.26716198241187	2.773732083998624	1.4818784007625365		3.0925239440025747	-1.2918536832360874		2.497371832490927	2.827747197047188	2.541427547751927	0	1	9	4	0	0	8	10	0	0	0	5	0	0	0	0		2.773732083998624	1.6212156432432425	2.134995589511237			1.4468686137831541	1.1232358366139266				3.0925239440025747				
sub-06	ses-028	run-5	35	5	4	16	40	20	0.675	1.9919706139489222	1.657557348453575	2.7364310754118484	2.694890473296395	2.4192105180854573	-1.03733312484282	12	4	7	12	0	4	1	0	12	8	8	12	0.8	0.3	0.675	0.8	1.4273285155231112	2.331287466515789	2.2353835060174743	1.3261442167843598	-0.903958950992678		2.588682829511817	3.3274240590119746		5	30	2	3	2	2	3	13	1.956041315740682	3.1211996856424973	1.413616958922088	3.1279715625313127	2.4754040839988725	-1.7075827267204093	2.7192858675611116	2.670495079031678	3.308272535684516	2.214042360177982	1	2	11	2	2	0	5	12	0	2	0	2	0	0	1	0	3.2088200660608663	3.0440183415287194	1.265374738201497	1.618556591502859	3.154570839547091		1.8677085726056273	1.3261442167843598		3.1279715625313127		2.049394096492321			3.3274240590119746	
sub-06	ses-028	run-6	32	7	3	16	39	19	0.6626180836707152	1.920469153281762	1.3943388762144608	3.1039552162068764	3.079455504359989	2.5846802616611275	-1.6851166281455283	13	1	4	14	1	5	1	0	14	6	5	14	0.7706766917293233	0.008771929824561403	0.6421052631578947	0.8421052631578947	1.1796829592966698	1.219767186036334	1.7716304315347235	1.498334046845058	-0.040084226739664164	3.5536650440469373	3.0375031598648063	2.9865056700771646		1	31	4	3	2	1	1	15	2.4432987458620876	2.984023322002031	1.3430587328019585	3.4286486553086437	2.671030630737853	-1.6409645892000724	3.1827695890329792	2.872827335014009	3.207801201008266	2.5431388657046514	0	0	13	1	1	0	3	14	1	2	0	3	1	0	0	0			1.1796829592966698	1.219767186036334	2.984023322002031		1.3674994680456212	1.498334046845058	3.5536650440469373	3.5872119535552365		2.671030630737853	2.9865056700771646			
sub-06	ses-029	run-1	27	13	2	18	40	20	0.5750000000000001	1.73531375571448	1.7786493185404002	2.3604025463810094	2.3295552235143298	2.17560902263607	-0.5509059049739295	6	7	8	6	0	7	6	0	6	14	14	6	0.9	0.4	0.4714285714285714	0.9	1.0060829237165525	2.650971580381906	2.236735248441107	0.922725168014883	-1.6448886566653533		2.398229573138863	2.316271015163512		5	22	2	11	2	0	1	17	2.0856253313951285	3.228157993746919	1.449215528720737	2.9775790109857923	2.248188643725594	-1.778942465026182	2.3295552235143298		3.3574602980446	2.106088359376745	0	3	6	4	2	0	6	6	0	1	0	6	1	0	5	0		3.2934541546180847	1.0060829237165525	2.1691096497047715	3.13021375244017		1.9389090804414193	0.922725168014883		3.1325067719630937		2.2758500400014916	2.822651250008491		2.2149949681945165	
sub-06	ses-029	run-2	34	6	3	17	40	20	0.7	2.0728667789875797	1.5907017124457963	2.160925693178242	2.7125129126353804	2.150388504593249	-1.1218112001895841	8	8	10	8	0	4	2	0	8	12	12	8	0.85	0.5166666666666666	0.6833333333333333	0.85	1.1767785803799073	1.8524979297677027	2.1503624672153996	1.0432526837277747	-0.6757193493877953		2.0858543237578178	2.3110684320190913		2	32	1	5	3	0	0	17	2.801585218112969	2.9803467820119067	1.5038488955979143	3.0378918859362614	1.9855324546266384	-1.4764978864139924	2.7125129126353804			2.150388504593249	0	0	8	8	2	0	8	8	0	0	0	4	1	0	1	0			1.1767785803799073	1.8524979297677027	2.9803467820119067		1.942866388516273	1.0432526837277747				2.0858543237578178	3.0378918859362614		1.5842449781019212	
sub-06	ses-029	run-3	34	6	4	16	40	20	0.6499999999999999	1.8780546230667041	1.4152283439656517	2.464362745578404	2.2358180136512935	2.439653579297593	-0.8205896696856418	10	7	7	10	0	3	3	0	10	10	10	10	0.8	0.49999999999999994	0.49999999999999994	0.8	0.9331632165163768	1.9282114122541867	1.8927709875521888	1.203925473102376	-0.9950481957378099		2.058478007751209	2.870247483405599		2	32	2	4	0	4	1	15	1.6832424671458286	1.2172319610277071	1.4276031178992732	2.907122984612368	2.242982626061422	0.21037115687156605		2.2358180136512935	2.960025695124642	2.404962104909123	1	0	9	7	1	0	6	10	0	0	0	3	2	0	1	0	0.144077444998544		1.0208394133516916	1.9282114122541867	2.2903864770568703		1.8265017393014087	1.203925473102376				2.058478007751209	2.907122984612368		2.7964964809920616	
sub-06	ses-029	run-4	32	8	8	12	40	20	0.4	1.094968336708714	1.45838627530495	2.751778153701449	2.748046353826067	2.4293852234298052	-1.2896600785211172	10	6	6	10	0	4	4	0	10	10	10	10	0.6	0.19999999999999996	0.19999999999999996	0.6	1.1816412973841715	1.9600764135799007	2.030051709390252	1.091117909809577	-0.7784351161957292		2.6894604493258476	2.814095858077051		3	29	2	6	5	3	1	11	1.6341935155362681	2.7296558207242376	1.3268756326753683	3.022446506572887	2.66155536941097	-1.4027801880488693	2.8719760094899693	2.541496927719564	2.720433724001051	2.4029262688324193	0	1	10	5	2	0	4	10	0	0	0	4	2	0	2	0		3.0132692860066754	1.1816412973841715	1.7494378390945458	2.5878490880830185		1.7511530200438692	1.091117909809577				2.6894604493258476	3.022446506572887		2.6057452095812152	
sub-06	ses-029	run-5	37	2	7	13	39	20	0.5987179487179487	2.0178684322539158	1.74523116274586	2.361418683570804	2.3064919623373337	2.513665065405748	-0.5612607995914736	12	6	7	12	0	1	1	0	12	7	8	12	0.65	0.5071428571428571	0.525	0.65	1.5071970520393607	2.258231646572247	2.1402643934836965	1.4963289802754278	-0.7510345945328865		2.240127522032708	2.4827098451089		1	36	0	2	2	5	2	11	2.100566622468929	3.15710124008362	1.706012549486478		2.361418683570804	-1.451088690597142	2.9023310750862588	2.0681563172377637	3.1113182705454534	2.405000846289438	0	0	12	6	1	0	6	12	0	0	0	1	0	0	1	0			1.5071970520393607	2.258231646572247	3.15710124008362		1.9707915857170424	1.4963289802754278				2.240127522032708			2.4827098451089	
sub-06	ses-029	run-6	38	2	4	16	40	20	0.75	2.4864748605243863	1.4181350209478207	2.6594097039802023	2.2444271405041185	2.4392438280256483	-0.8262921195562978	14	6	4	14	0	0	2	0	14	6	6	14	0.8	0.8	0.4666666666666666	0.8	1.193936573843072	2.3781362565994897	2.1920143361925124	1.0097959912747991	-1.1841996827564176			2.6594097039802023		4	34	0	2	0	4	1	15	1.8780546230667041	2.6634016544977186	1.2716330640595974		2.6594097039802023	-1.3917685904381212		2.2444271405041185	2.900901812985552	2.408466629028321	0	2	14	4	2	0	2	14	0	0	0	0	0	0	2	0		2.89686651053373	1.193936573843072	2.1187711296323695	2.429936798461707		1.9540918739233177	1.0097959912747991							2.6594097039802023	
sub-06	ses-030	run-1	30	10	4	16	40	20	0.55	1.516110983768996	1.815855152090702	2.457885834261776	2.7289245648146605	2.27978150066978	-0.9130694127239585	6	8	10	6	0	6	4	0	6	14	14	6	0.8	0.3714285714285714	0.5142857142857142	0.8	1.5762360097188453	2.1373231702367805	2.1756381697114557	1.0272119075665316	-0.5610871605179353		2.255343565253232	2.761699237774593		1	29	0	10	3	1	2	14	2.242613752993951	2.673227904075757	1.7862905744360449		2.457885834261776	-0.8869373296397123	2.6528178604288617	2.9572446779720565	3.0153230985254	2.174704129547549	0	1	6	7	0	0	10	6	0	0	0	6	0	0	4	0		2.673227904075757	1.5762360097188453	2.060765351116927			2.1756381697114557	1.0272119075665316				2.255343565253232			2.761699237774593	
sub-06	ses-030	run-2	36	4	2	18	40	20	0.8	2.5631031310892007	1.687173958439122	2.3194276453251934	2.505023857997731	2.5045658356696396	-0.817849899558609	8	10	10	8	0	2	2	0	8	12	12	8	0.9	0.7333333333333334	0.7333333333333334	0.9	1.2851804318453652	2.3194614250529577	1.9644026327906186	0.9522723088262133	-1.0342809932075925		2.3274063961300975	2.3114488945202893		5	31	1	3	2	0	0	18	2.7153790109005236	2.874475888075307	1.4956736472074794	2.975756555059931	2.100651342080281	-1.3788022408678275	2.505023857997731			2.5045658356696396	0	4	8	6	1	0	9	8	0	0	0	2	1	0	1	0		2.881685244047553	1.2851804318453652	1.9446455457232277	2.8456384641863224		1.866487540413318	0.9522723088262133				2.3274063961300975	2.975756555059931		1.6471412339806475	
sub-06	ses-030	run-3	32	8	2	18	40	20	0.7000000000000001	2.1231727991175147	1.4562884513378958	2.5753858999116352	2.891502780378797	2.441134668223357	-1.4352143290409014	10	4	8	10	0	6	2	0	10	10	10	10	0.9	0.30000000000000004	0.7000000000000001	0.9	0.9817153555024418	2.500666468914133	2.1074676538887447	0.9921669781021756	-1.5189511134116913		2.8154358292246866	1.8552361119724807		4	28	3	5	1	1	3	15	2.1692541396595137	2.8986610229127105	1.250235226827208	2.995374334882944	2.32339283892885	-1.6484257960855027	2.79459946391173	2.988406096845864	2.9296743628631	2.3434267292954085	0	2	10	2	2	0	6	10	0	3	0	3	0	0	2	0		2.596061957450587	0.9817153555024418	2.405270980377679	3.201260088374834		1.7428701757267149	0.9921669781021756		2.995374334882944		2.6354973235664296			1.8552361119724807	
sub-06	ses-030	run-4	33	7	2	18	40	20	0.725	2.2161408566180802	1.4512925626679054	2.6382253841417156	2.5651335564628255	2.372842454492733	-1.11384099379492	10	5	8	10	0	5	2	0	10	10	10	10	0.9	0.4	0.7000000000000001	0.9	1.1194965450791725	2.102508027451114	1.7863360678928482	1.1894460436850793	-0.9830114823719416		2.5391999222282324	2.8857890389254237		0	33	2	5	2	0	0	18	2.8945532756135344		1.4512925626679054	3.218547713351427	2.406096452457831		2.5651335564628255			2.372842454492733	0	0	10	5	0	0	8	10	0	1	0	4	1	0	1	0			1.1194965450791725	2.102508027451114			1.7863360678928482	1.1894460436850793		3.2276764567941427		2.3670807885867546	3.209418969908711		2.5621591079421364	
sub-06	ses-030	run-5	37	3	7	13	40	20	0.5750000000000001	1.8248519373460241	1.6398904486962091	3.029798885369671	2.7068090858949074	2.3143761378247283	-1.0669186371986983	12	6	7	12	0	2	1	0	12	8	8	12	0.65	0.4	0.525	0.65	1.1928217053033097	2.401884317873049	2.473829953909992	1.2194975461259823	-1.2090626125697395		2.849194104569035	3.391008446970943		6	31	1	2	5	2	0	13	2.0369665919050695	2.832409445390424	1.4090803203037805	3.391008446970943	2.849194104569035	-1.4233291250866433	2.855635590644553	2.3347428240207933		2.3143761378247283	0	3	12	3	3	0	4	12	0	0	0	2	1	0	0	0		2.9579683767166003	1.1928217053033097	1.8458002590294977	2.706850514064248		2.2990645337943008	1.2194975461259823				2.849194104569035	3.391008446970943			
sub-06	ses-030	run-6	40	0	4	16	40	20	0.8	3.083023961177861	1.5179348660821586		2.4181779549201075	2.6042291261721373	-0.9002430888379489	14	6	6	14	0	0	0	0	14	6	6	14	0.8	0.8	0.8	0.8	1.2138397644852714	2.593883968703449	1.8368280044089371	1.224240435844159	-1.3800442042181775					3	37	0	0	2	2	0	16	2.7210830364830567	3.0095203852094747	1.3969954996664302			-1.6125248855430445	2.768587954421534	2.067767955418681		2.6042291261721373	0	3	14	3	0	0	6	14	0	0	0	0	0	0	0	0		3.0095203852094747	1.2138397644852714	2.178247552197423			1.8368280044089371	1.224240435844159								
sub-06	ses-031	run-1	31	9	1	18	40	19	0.7223684210526315	2.375271284998739	1.614410695955758	2.334456881814534	2.560655397120854	2.203396423370064	-0.9462447011650961	6	9	10	6	0	5	4	0	6	14	14	6	0.9473684210526316	0.5902255639097744	0.6616541353383458	0.9473684210526316	0.9620236702573806	2.094451424206297	1.9404791697692114	1.003289172922571	-1.1324277539489165		2.7267440172024084	1.844097962579692		1	30	2	7	0	1	0	18	2.2943460088343515	3.1068687421455934	1.564662094416097	2.717557388283314	2.2249995942520258	-1.5422066477294964		2.560655397120854		2.203396423370064	0	0	6	9	1	0	9	6	0	2	0	3	0	0	4	0			0.9620236702573806	2.094451424206297	3.1068687421455934		1.810880328394058	1.003289172922571		2.717557388283314		2.7328684364818048			1.844097962579692	
sub-06	ses-031	run-2	33	7	1	19	40	20	0.7749999999999999	2.5794429180249527	1.546217907544115	2.75173653462902	3.242052111122746	2.5228311386939724	-1.695834203578631	8	7	10	8	0	5	2	0	8	12	12	8	0.95	0.5333333333333333	0.7833333333333333	0.95	1.069013652210125	1.8635729932199634	2.14808173978701	0.9934066726081179	-0.7945593410098384		2.585300554934892	3.1678264838643386		3	30	2	5	1	0	0	19	2.634453734736136	2.9965173440612887	1.4011879638923974	3.1678264838643386	2.585300554934892	-1.5953293801688913	3.242052111122746			2.5228311386939724	0	1	8	6	2	0	8	8	0	0	0	5	2	0	0	0		3.096953170988712	1.069013652210125	1.6580096302585055	2.946299430597577		1.948527317084368	0.9934066726081179				2.585300554934892	3.1678264838643386			
sub-06	ses-031	run-3	32	8	0	20	40	20	0.8	2.801585218112969	1.5181790076941248	2.5401444849977306		2.3066664318963914		10	6	6	10	0	4	4	0	10	10	10	10	1.0	0.6	0.6	1.0	1.2545490039382117	2.322491205188751	2.0427065639601394	0.9845051591936539	-1.0679422012505395		2.3651481456169883	2.715140824378473		4	28	3	5	0	0	0	20	2.4843644972480954	2.6533415444986836	1.3560129310077593	2.903099495768553	2.322371478535237	-1.2973286134909243				2.3066664318963914	0	2	10	4	2	0	4	10	0	1	0	3	2	0	2	0		3.140799524551248	1.2545490039382117	1.913337045507503	2.165883564446119		1.9811180637171493	0.9845051591936539		3.278149729035789		2.060814284477388	2.715574379134935		2.7147072696220107	
sub-06	ses-031	run-4	35	5	3	17	40	20	0.725	2.1867827698697977	1.5460265633596908	2.4361334374398083	2.976229240347943	1.9095061797736335	-1.430202676988252	10	7	8	10	0	3	2	0	10	10	10	10	0.85	0.5499999999999999	0.65	0.85	1.157683355595914	2.322340215625508	1.9560430529224735	1.0629370228871697	-1.1646568600295941		2.4477813675440836	2.4186615422833952		3	32	0	5	2	1	0	17	2.486474860524387	2.933065621561056	1.4159916516533129		2.4361334374398083	-1.5170739699077431	2.819809320895004	3.289069079253821		1.9095061797736335	0	3	10	4	0	0	8	10	0	0	0	3	0	0	2	0		2.933065621561056	1.157683355595914	1.8642961611738473			1.9560430529224735	1.0629370228871697				2.4477813675440836			2.4186615422833952	
sub-06	ses-031	run-5	37	3	1	19	40	20	0.875	3.084385097889929	1.6247202284800268	2.7556195721837375	2.886362247969956	2.4992121908578424	-1.2616420194899294	12	5	8	12	0	3	0	0	12	8	8	12	0.95	0.575	0.95	0.95	0.9984673832263784	2.577484766986223	2.2111876397463615	1.4630095751785366	-1.5790173837598447		2.7556195721837375			2	35	0	3	1	0	1	18	3.1103133649160624	2.8092456540837953	1.5570330613026686		2.7556195721837375	-1.2522125927811267	2.886362247969956		2.595824816767127	2.493844822751771	0	1	12	4	1	0	7	12	0	0	0	3	0	0	0	0		3.101757005993277	0.9984673832263784	2.44641670723446	2.5167343021743136		2.167538116542368	1.4630095751785366				2.7556195721837375				
sub-06	ses-031	run-6	40	0	1	18	40	19	0.9473684210526316	3.8612589862432167	1.6180266017881233		3.22756634492427	2.067655720261651	-1.6095397431361467	14	6	6	14	0	0	0	0	14	6	6	14	0.9473684210526316	0.9473684210526316	0.9473684210526316	0.9473684210526316	1.3668185101356336	2.026939978475374	2.3528627972087506	1.37905630539438	-0.6601214683397405					1	39	0	0	0	1	0	18	3.579820243178324	3.849746365789329	1.5608030180957848			-2.2889433476935444		3.22756634492427		2.067655720261651	0	0	14	6	1	0	5	14	0	0	0	0	0	0	0	0			1.3668185101356336	2.026939978475374	3.849746365789329		2.053486083492635	1.37905630539438								
sub-06	ses-032	run-1	32	8	3	17	40	20	0.65	1.8780546230667041	1.5734993976412806	2.266614786437723	2.5474654248977706	2.1722881993804783	-0.9739660272564901	6	7	13	6	0	7	1	0	6	14	14	6	0.85	0.35	0.7785714285714286	0.85	0.9157675317302362	2.2163692322985438	1.8440863198156543	0.8949447917410419	-1.3006017005683077		2.225091718081394	2.557276264932028		2	30	1	7	1	2	1	16	1.956041315740682	2.2235339255351576	1.5301637624483555	2.484017284251763	2.235557286750003	-0.6933701630868021	3.01279917214066	2.3147985512763256	2.3034911451116216	2.1640880152722817	0	0	6	7	2	0	11	6	0	1	0	6	0	0	1	0			0.9157675317302362	2.2163692322985438	2.2235339255351576		1.7750958460484718	0.8949447917410419		2.484017284251763		2.181937457052999			2.557276264932028	
sub-06	ses-032	run-2	35	5	4	16	40	20	0.675	1.9919706139489222	1.5014328949696274	2.7280298447050155	2.4273351206444143	2.4037837171263536	-0.9259022256747869	8	9	10	8	0	3	2	0	8	12	12	8	0.8	0.55	0.6333333333333333	0.8	1.0502520172158292	2.1867432511949714	1.729599003363404	0.8964319864776931	-1.1364912339791422		2.833323917947709	2.5700887348409758		4	31	1	4	2	2	3	13	2.0369665919050695	2.763882421720778	1.3385361818404466	2.675554411318153	2.7411487030517314	-1.4253462398803314	2.2899831056967344	2.564687135592094	3.0886897562754654	2.2457284773227126	0	3	8	6	1	0	9	8	0	0	0	3	1	0	1	0		2.7918323615690093	1.0502520172158292	1.8841986960079524	2.680032602176084		1.6239952701619953	0.8964319864776931				2.833323917947709	2.675554411318153		2.4646230583637987	
