subject	session	TrialNumber	image_path	condition	image_nr	category_nr	exemplar_nr	test_image_nr	things_category_nr	things_image_nr	things_exemplar_nr	subcondition	repetition	run	onset	duration	response_mapping_flip_h	response_mapping_flip_v	onset_flip	offset_flip	keypresses	response	response_txt	error	response_confidence	response_time	duration_flip	ran	order	session_trial_time	atypical	atypical_log	exclude_session	delay_days	delay_seconds	trials_since_lastrep
6	ses-001	1	images_fmri/gearshift/gearshift_05s.jpg	unseen	3221	269	5	None	669.0	9589.0	5.0	unseen-within	1	1	3.0	2.98	False	False	2.983773946762085	5.960448980331421	[['y', 5.024883031845093]]	-2.0	unseen	False	True	2.0248830318450928	2.976675033569336	1.0	0.0	1618428234.4342	False		False			
6	ses-001	2	images_fmri/canoe/canoe_05s.jpg	unseen	1385	116	5	None	263.0	3865.0	5.0	unseen-within	1	1	7.47	2.98	True	False	7.460391044616699	10.427515983581545	[['a', 9.23576807975769]]	-2.0	unseen	False	True	1.765768079757691	2.967124938964844	1.0	1.0	1618428238.9109	False		False			
6	ses-001	3	images_fmri/refrigerator/refrigerator_05s.jpg	unseen	6209	518	5	None	1301.0	18521.0	5.0	unseen-within	1	1	11.94	2.98	True	True	11.9270179271698	14.91024899482727	[['a', 13.658476114273071]]	-2.0	unseen	False	True	1.7184761142730718	2.9832310676574707	1.0	2.0	1618428243.3775	False		False			
6	ses-001	4	images_fmri/handcuff/handcuff_05s.jpg	unseen	3641	304	5	None	747.0	10699.0	5.0	unseen-within	1	1	16.41	2.98	True	False	16.39354109764099	19.3768150806427	[['a', 17.87636399269104]]	-2.0	unseen	False	True	1.46636399269104	2.983273983001709	1.0	3.0	1618428247.844	False		False			
6	ses-001	5	images_fmri/canoe/canoe_05s.jpg	seen	1385	116	5	None	263.0	3865.0	5.0	seen-within	2	1	20.88	2.98	True	True	20.860424995422363	23.84339594841004	[['b', 22.444178104400635]]	2.0	seen	False	True	1.5641781044006358	2.982970952987671	1.0	4.0	1618428252.3109	False		False	0.0	13.399999856948853	3.0
6	ses-001	6	images_fmri/trap/trap_05s.jpg	unseen	7937	662	5	None	1703.0	24023.0	5.0	unseen-within	1	1	25.35	2.98	False	False	25.32704496383667	28.30982494354248	[['y', 27.04070496559143]]	-2.0	unseen	False	True	1.6907049655914292	2.9827799797058105	1.0	5.0	1618428256.7775	False		False			
6	ses-001	7	images_fmri/jam/jam_05s.jpg	unseen	3977	332	5	None	840.0	12009.0	5.0	unseen-within	1	1	29.82	2.98	False	False	29.809854984283447	32.77724504470825	[['y', 31.524302005767822]]	-2.0	unseen	False	True	1.704302005767822	2.9673900604248047	1.0	6.0	1618428261.2603	False		False			
6	ses-001	8	images_fmri/bread/bread_05s.jpg	unseen	977	82	5	None	195.0	2948.0	5.0	unseen-between	1	1	34.29	2.98	True	False	34.2771909236908	37.261767864227295	[['a', 35.87223196029663]]	-2.0	unseen	False	True	1.5822319602966315	2.984576940536499	1.0	7.0	1618428265.7277	False		False			
6	ses-001	9	images_fmri/wand/wand_05n.jpg	unseen	8321	694	5	None	1781.0	25108.0	5.0	unseen-within	1	1	38.76	2.98	True	True	38.748833894729614	41.729016065597534	[['a', 40.46766710281372]]	-2.0	unseen	False	True	1.7076671028137227	2.98018217086792	1.0	8.0	1618428270.1993	False		False			
6	ses-001	10	images_fmri/brush/brush_05s.jpg	unseen	1049	88	5	None	206.0	3108.0	5.0	unseen-within	1	1	43.23	2.98	True	True	43.210284948349	46.19360899925232	[['a', 44.483469009399414]]	-2.0	unseen	False	True	1.2534690093994172	2.9833240509033203	1.0	9.0	1618428274.6608	False		False			
6	ses-001	11	images_fmri/pot/pot_05s.jpg	unseen	5885	491	5	None	1231.0	17506.0	5.0	unseen-within	1	1	47.7	2.98	False	False	47.67921209335327	50.66133904457092	[['y', 49.12247896194458]]	-2.0	unseen	False	True	1.4224789619445772	2.982126951217652	1.0	10.0	1618428279.1297	False		False			
6	ses-001	12	images_fmri/hotdog/hotdog_05s.jpg	unseen	3845	321	5	None	806.0	11529.0	5.0	unseen-within	1	1	52.17	2.98	False	True	52.16001605987549	55.12799596786499	[['y', 53.70298194885254]]	-2.0	unseen	False	True	1.5329819488525374	2.967979907989502	1.0	11.0	1618428283.6105	False		False			
6	ses-001	13	images_fmri/needle/needle_05n.jpg	unseen	5045	421	5	None	1056.0	15033.0	5.0	unseen-within	1	1	56.64	2.98	False	True	56.62671709060669	59.61048603057861	[['y', 58.04210901260376]]	-2.0	unseen	False	True	1.4021090126037592	2.983768939971924	1.0	12.0	1618428288.0772	False		False			
6	ses-001	14	images_fmri/hay/hay_05s.jpg	unseen	3677	307	5	None	762.0	10913.0	5.0	unseen-within	1	1	61.11	2.98	True	False	61.09491300582886	64.076416015625	[['a', 62.69835591316223]]	-2.0	unseen	False	True	1.588355913162232	2.9815030097961426	1.0	13.0	1618428292.5454	False		False			
6	ses-001	15	images_fmri/brush/brush_05s.jpg	seen	1049	88	5	None	206.0	3108.0	5.0	seen-within	2	1	65.58	2.98	True	False	65.56030297279358	68.54287505149841	[['x', 67.05613088607788]]	2.0	seen	False	True	1.4761308860778826	2.982572078704834	1.0	14.0	1618428297.0108	False		False	0.0	22.34999990463257	5.0
6	ses-001	16	images_fmri/basket/basket_05s.jpg	unseen	425	36	5	None	83.0	1234.0	5.0	unseen-within	1	1	70.05	2.98	True	False	70.02790403366089	73.00966191291809	[['a', 71.47600793838501]]	-2.0	unseen	False	True	1.4260079383850126	2.981757879257202	1.0	15.0	1618428301.4784	False		False			
6	ses-001	17	images_fmri/wand/wand_05n.jpg	seen	8321	694	5	None	1781.0	25108.0	5.0	seen-within	2	1	74.52	2.98	True	False	74.51138186454773	77.47671794891357	[['x', 75.85026407241821]]	2.0	seen	False	True	1.3302640724182169	2.9653360843658447	1.0	16.0	1618428305.9619	False		False	0.0	35.76259994506836	8.0
6	ses-001	18	images_fmri/ruler/ruler_05s.jpg	unseen	6401	534	5	None	1342.0	19086.0	5.0	unseen-within	1	1	78.99	2.98	False	False	78.97722506523132	81.96380996704102	[['y', 80.33833408355713]]	-2.0	unseen	False	True	1.348334083557134	2.9865849018096924	1.0	17.0	1618428310.4277	False		False			
6	ses-001	19	images_fmri/antenna/antenna_05s.jpg	unseen	161	14	5	None	28.0	384.0	5.0	unseen-within	1	1	83.46	2.98	True	True	83.4417359828949	86.42504692077637	[['a', 85.10540294647217]]	-2.0	unseen	False	True	1.6454029464721742	2.9833109378814697	1.0	18.0	1618428314.8922	False		False			
6	ses-001	20	images_fmri/mandolin/mandolin_05s.jpg	unseen	4589	383	5	None	966.0	13766.0	5.0	unseen-within	1	1	87.92999999999998	2.98	False	False	87.90882396697998	90.8919439315796	[['y', 89.70195007324219]]	-2.0	unseen	False	True	1.771950073242209	2.9831199645996094	1.0	19.0	1618428319.3593	False		False			
6	ses-001	21	images_fmri/meatball/meatball_05s.jpg	unseen	4733	395	5	None	990.0	14100.0	5.0	unseen-between	1	1	92.4	2.98	False	False	92.3748209476471	95.35871696472168	[['y', 93.6209990978241]]	-2.0	unseen	False	True	1.220999097824091	2.983896017074585	1.0	20.0	1618428323.8253	False		False			
6	ses-001	22	images_fmri/paintbrush/paintbrush_05s.jpg	unseen	5261	439	5	None	1098.0	15632.0	5.0	unseen-within	1	1	96.87	2.98	True	False	96.85805702209473	99.8250138759613	[['a', 98.43797707557678]]	-2.0	unseen	False	True	1.5679770755767777	2.966956853866577	1.0	21.0	1618428328.3085	False		False			
6	ses-001	23	images_fmri/gramophone/gramophone_05s.jpg	unseen	3353	280	5	None	700.0	10024.0	5.0	unseen-within	1	1	101.34	2.98	False	False	101.3248040676117	104.30809998512268	[['y', 102.76392197608948]]	-2.0	unseen	False	True	1.423921976089474	2.9832959175109863	1.0	22.0	1618428332.7753	False		False			
6	ses-001	24	images_fmri/peach/peach_05s.jpg	unseen	5405	451	5	None	1130.0	16092.0	5.0	unseen-within	1	1	105.81	2.98	True	True	105.79114890098572	108.7751579284668	[['a', 107.18972611427307]]	-2.0	unseen	False	True	1.379726114273069	2.984009027481079	1.0	23.0	1618428337.2416	False		False			
6	ses-001	25	images_fmri/basket/basket_05s.jpg	seen	425	36	5	None	83.0	1234.0	5.0	seen-within	2	1	110.28	2.98	False	False	110.257719039917	113.24094605445862	[['x', 111.52357792854309]]	2.0	seen	False	True	1.2435779285430897	2.983227014541626	1.0	24.0	1618428341.7082	False		False	0.0	40.22979998588562	9.0
6	ses-001	26	images_fmri/llama/llama_05s.jpg	unseen	4469	373	5	None	939.0	13409.0	5.0	unseen-between	1	1	114.75	2.98	True	True	114.74098300933838	117.70814800262453	[['a', 116.54464793205261]]	-2.0	unseen	False	True	1.7946479320526123	2.967164993286133	1.0	25.0	1618428346.1915	False		False			
6	ses-001	27	images_fmri/soda_fountain/soda_fountain_05s.jpg	unseen	6953	580	5	None	1492.0	21117.0	5.0	unseen-between	1	1	119.22	2.98	False	False	119.20753693580627	122.19082593917848	[['y', 120.71272993087769]]	-2.0	unseen	False	True	1.492729930877687	2.9832890033721924	1.0	26.0	1618428350.658	False		False			
6	ses-001	28	images_fmri/gearshift/gearshift_05s.jpg	seen	3221	269	5	None	669.0	9589.0	5.0	seen-within	2	1	123.69	2.98	True	False	123.67401909828186	126.65831089019775	[['x', 125.28785490989685]]	2.0	seen	False	True	1.5978549098968529	2.9842917919158936	1.0	27.0	1618428355.1245	False		False	0.0	120.69029998779295	27.0
6	ses-001	29	images_fmri/pumpkin/pumpkin_05s.jpg	unseen	6005	501	5	None	1254.0	17857.0	5.0	unseen-between	1	1	128.16	2.98	False	True	128.1438319683075	131.12594389915466	[['y', 129.1474928855896]]	-2.0	unseen	False	True	0.987492885589603	2.982111930847168	1.0	28.0	1618428359.5943	False		False			
6	ses-001	30	images_fmri/corkscrew/corkscrew_05s.jpg	unseen	2045	171	5	None	412.0	5919.0	5.0	unseen-between	1	1	132.63	2.98	False	True	132.61429691314697	135.59627294540405	[['y', 134.00155305862427]]	-2.0	unseen	False	True	1.371553058624272	2.98197603225708	1.0	29.0	1618428364.0648	False		False			
6	ses-001	31	images_fmri/banner/banner_05s.jpg	unseen	389	33	5	None	71.0	1050.0	5.0	unseen-within	1	1	137.1	2.98	False	True	137.09039497375488	140.05706000328064	[['y', 139.19804310798645]]	-2.0	unseen	False	True	2.098043107986456	2.966665029525757	1.0	30.0	1618428368.5409	False		False			
6	ses-001	32	images_fmri/floss/floss_05s.jpg	unseen	3017	252	5	None	618.0	8917.0	5.0	unseen-within	1	1	141.57	2.98	False	False	141.5568859577179	144.54034996032715	[['y', 143.45067811012268]]	-2.0	unseen	False	True	1.880678110122688	2.983464002609253	1.0	31.0	1618428373.0074	False		False			
6	ses-001	33	images_fmri/telescope/telescope_05n.jpg	unseen	7601	634	5	None	1641.0	23167.0	5.0	unseen-within	1	1	146.04	2.98	True	True	146.02360701560974	149.00681591033936	[['a', 147.90455293655396]]	-2.0	unseen	False	True	1.864552936553963	2.9832088947296143	1.0	32.0	1618428377.4741	False		False			
6	ses-001	34	images_fmri/trashcan/trashcan_05s.jpg	unseen	7949	663	5	None	1705.0	24050.0	5.0	unseen-within	1	1	150.51	2.98	True	False	150.49011898040771	153.47333908081055	[['a', 152.12123608589172]]	-2.0	unseen	False	True	1.6112360858917327	2.983220100402832	1.0	33.0	1618428381.9406	False		False			
6	ses-001	35	images_fmri/gramophone/gramophone_05s.jpg	seen	3353	280	5	None	700.0	10024.0	5.0	seen-within	2	1	154.98	2.98	True	True	154.95702600479126	157.9399778842926	[['b', 156.29534602165222]]	2.0	seen	False	True	1.315346021652232	2.9829518795013428	1.0	34.0	1618428386.4075	False		False	0.0	53.63220000267029	12.0
6	ses-001	36	images_fmri/cranberry/cranberry_05s.jpg	unseen	2117	177	5	None	431.0	6222.0	5.0	unseen-within	1	1	159.45	2.98	False	True	159.43991708755493	162.4064450263977	[['y', 161.04073190689087]]	-2.0	unseen	False	True	1.5907319068908805	2.966527938842773	1.0	35.0	1618428390.8904	False		False			
6	ses-001	37	images_fmri/wheat/wheat_05n.jpg	unseen	8417	702	5	None	1806.0	25444.0	5.0	unseen-within	1	1	163.92	2.98	False	False	163.90646600723267	166.8897180557251	[['y', 165.45208096504211]]	-2.0	unseen	False	True	1.5320809650421268	2.983252048492432	1.0	36.0	1618428395.3569	False		False			
6	ses-001	38	images_fmri/refrigerator/refrigerator_05s.jpg	seen	6209	518	5	None	1301.0	18521.0	5.0	seen-within	2	1	168.39	2.98	True	False	168.37299489974976	171.35652589797974	[['x', 169.4972710609436]]	2.0	seen	False	True	1.1072710609436172	2.9835309982299805	1.0	37.0	1618428399.8235	False		False	0.0	156.44599986076355	35.0
6	ses-001	39	images_fmri/banner/banner_05s.jpg	seen	389	33	5	None	71.0	1050.0	5.0	seen-within	2	1	172.86	2.98	False	True	172.83996891975403	175.82504892349243	[['b', 174.1905529499054]]	2.0	seen	False	True	1.330552949905382	2.985080003738404	1.0	38.0	1618428404.2904	False		False	0.0	35.749500036239624	8.0
6	ses-001	40	images_fmri/hotdog/hotdog_05s.jpg	seen	3845	321	5	None	806.0	11529.0	5.0	seen-within	2	1	177.32999999999996	2.98	False	True	177.30635404586792	180.28977608680725	[['b', 178.70065689086914]]	2.0	seen	False	True	1.370656890869185	2.983422040939331	1.0	39.0	1618428408.7568	False		False	0.0	125.14629983901978	28.0
6	ses-001	41	images_fmri/gel/gel_05s.jpg	unseen	3233	270	5	None	670.0	9601.0	5.0	unseen-within	1	1	181.8	2.98	True	True	181.78926301002505	184.7563099861145	[['a', 183.51336908340454]]	-2.0	unseen	False	True	1.7133690834045296	2.967046976089477	1.0	40.0	1618428413.2397	False		False			
6	ses-001	42	images_fmri/brownie/brownie_05s.jpg	unseen	1037	87	5	None	205.0	3090.0	5.0	unseen-between	1	1	186.27	2.98	True	True	186.25575494766235	189.2390730381012	[['a', 188.07144808769226]]	-2.0	unseen	False	True	1.8014480876922505	2.9833180904388428	1.0	41.0	1618428417.7062	False		False			
6	ses-001	43	images_fmri/needle/needle_05n.jpg	seen	5045	421	5	None	1056.0	15033.0	5.0	seen-within	2	1	190.74	2.98	True	True	190.722307920456	193.7055480480194	[['b', 192.32937502861023]]	2.0	seen	False	True	1.5893750286102204	2.983240127563477	1.0	42.0	1618428422.1728	False		False	0.0	134.09560012817383	30.0
6	ses-001	44	images_fmri/possum/possum_05s.jpg	unseen	5861	489	5	None	1229.0	17482.0	5.0	unseen-between	1	1	195.21	2.98	False	False	195.1892580986023	198.17212200164795	[['y', 197.164381980896]]	-2.0	unseen	False	True	1.954381980895988	2.9828639030456543	1.0	43.0	1618428426.6397	False		False			
6	ses-001	45	images_fmri/telescope/telescope_05n.jpg	seen	7601	634	5	None	1641.0	23167.0	5.0	seen-within	2	1	199.68	2.98	False	False	199.6554219722748	202.63900709152225	[['x', 200.99018502235413]]	2.0	seen	False	True	1.3101850223541192	2.9835851192474365	1.0	44.0	1618428431.1059	False		False	0.0	53.63179993629456	12.0
6	ses-001	46	images_fmri/paintbrush/paintbrush_05s.jpg	seen	5261	439	5	None	1098.0	15632.0	5.0	seen-within	2	1	204.15	2.98	False	True	204.1386969089508	207.1057999134064	[['b', 205.7289810180664]]	2.0	seen	False	True	1.5789810180664006	2.9671030044555664	1.0	45.0	1618428435.5892	False		False	0.0	107.280699968338	24.0
6	ses-001	47	images_fmri/jam/jam_05s.jpg	seen	3977	332	5	None	840.0	12009.0	5.0	seen-within	2	1	208.62	2.98	True	False	208.6052770614624	211.5884470939636	[['x', 210.1620569229126]]	2.0	seen	False	True	1.542056922912593	2.9831700325012207	1.0	46.0	1618428440.0557	False		False	0.0	178.79540014266968	40.0
6	ses-001	48	images_fmri/waffle_iron/waffle_iron_05s.jpg	unseen	8237	687	5	None	1772.0	24983.0	5.0	unseen-between	1	1	213.09	2.98	True	True	213.0717990398407	216.0550079345703	[['a', 214.71323800086975]]	-2.0	unseen	False	True	1.6232380008697476	2.9832088947296143	1.0	47.0	1618428444.5223	False		False			
6	ses-001	49	images_fmri/bison/bison_05s.jpg	unseen	677	57	5	None	135.0	2067.0	5.0	unseen-within	1	1	217.56	2.98	True	False	217.5387930870056	220.5215530395508	[['a', 219.1199209690094]]	-2.0	unseen	False	True	1.5599209690093971	2.982759952545166	1.0	48.0	1618428448.9893	False		False			
6	ses-001	50	images_fmri/floss/floss_05s.jpg	seen	3017	252	5	None	618.0	8917.0	5.0	seen-within	2	1	222.03	2.98	True	True	222.0048758983612	224.9907429218292	[['b', 223.69202208518982]]	2.0	seen	False	True	1.6620220851898182	2.9858670234680176	1.0	49.0	1618428453.4553	False		False	0.0	80.44790005683899	18.0
6	ses-001	51	images_fmri/peach/peach_05s.jpg	seen	5405	451	5	None	1130.0	16092.0	5.0	seen-within	2	1	226.5	2.98	False	True	226.4917869567871	229.456640958786	[['b', 227.72097992897034]]	2.0	seen	False	True	1.220979928970337	2.9648540019989014	1.0	50.0	1618428457.9423	False		False	0.0	120.70070004463196	27.0
6	ses-001	52	images_fmri/otter/otter_05s.jpg	unseen	5189	433	5	None	1086.0	15457.0	5.0	unseen-between	1	1	230.97	2.98	True	False	230.9548819065094	233.9379830360413	[['a', 232.59300088882446]]	-2.0	unseen	False	True	1.623000888824464	2.9831011295318604	1.0	51.0	1618428462.4054	False		False			
6	ses-001	53	images_fmri/pot/pot_05s.jpg	seen	5885	491	5	None	1231.0	17506.0	5.0	seen-within	2	1	235.44	2.98	False	True	235.4211940765381	238.40514707565308	[['b', 236.6826720237732]]	2.0	seen	False	True	1.2426720237731956	2.9839529991149902	1.0	52.0	1618428466.8717	False		False	0.0	187.74200010299683	42.0
6	ses-001	54	images_fmri/cranberry/cranberry_05s.jpg	seen	2117	177	5	None	431.0	6222.0	5.0	seen-within	2	1	239.91	2.98	True	False	239.8882160186768	242.87111592292783	[['x', 241.4669349193573]]	2.0	seen	False	True	1.5569349193573032	2.982899904251098	1.0	53.0	1618428471.3387	False		False	0.0	80.44830012321472	18.0
6	ses-001	55	images_fmri/thumbtack/thumbtack_05s.jpg	unseen	7685	641	5	None	1655.0	23367.0	5.0	unseen-between	1	1	244.38	2.98	False	True	244.37097191810608	247.33768391609192	[['y', 246.13458800315857]]	-2.0	unseen	False	True	1.754588003158574	2.96671199798584	1.0	54.0	1618428475.8214	False		False			
6	ses-001	56	images_fmri/glass/glass_05s.jpg	unseen	3269	273	5	None	678.0	9712.0	5.0	unseen-within	1	1	248.85	2.98	False	True	248.8375148773193	251.820878982544	[['y', 250.69776105880737]]	-2.0	unseen	False	True	1.8477610588073787	2.9833641052246094	1.0	55.0	1618428480.288	False		False			
6	ses-001	57	images_fmri/antenna/antenna_05s.jpg	seen	161	14	5	None	28.0	384.0	5.0	seen-within	2	1	253.32	2.98	True	False	253.3042500019073	256.2879149913788	[['x', 254.59364891052246]]	2.0	seen	False	True	1.2736489105224678	2.9836649894714355	1.0	56.0	1618428484.7547	False		False	0.0	169.86249995231628	38.0
6	ses-001	58	images_fmri/wheat/wheat_05n.jpg	seen	8417	702	5	None	1806.0	25444.0	5.0	seen-within	2	1	257.79	2.98	False	True	257.7707030773163	260.75452995300293	[['b', 258.86829710006714]]	2.0	seen	False	True	1.0782971000671182	2.983826875686645	1.0	57.0	1618428489.2212	False		False	0.0	93.8643000125885	21.0
6	ses-001	59	images_fmri/fish/fish_05s.jpg	unseen	2969	248	5	None	601.0	8688.0	5.0	unseen-between	1	1	262.26	2.98	False	True	262.23719787597656	265.220764875412	[['y', 263.89470291137695]]	-2.0	unseen	False	True	1.6347029113769622	2.983566999435425	1.0	58.0	1618428493.6877	False		False			
6	ses-001	60	images_fmri/hay/hay_05s.jpg	seen	3677	307	5	None	762.0	10913.0	5.0	seen-within	2	1	266.73	2.98	False	True	266.72040605545044	269.6876800060272	[['b', 268.1198420524597]]	2.0	seen	False	True	1.3898420524596986	2.9672739505767822	1.0	59.0	1618428498.1709	False		False	0.0	205.62550020217896	46.0
6	ses-001	1	images_fmri/backpack/backpack_05s.jpg	unseen	281	24	5	None	50.0	713.0	5.0	unseen-within	1	2	3.0	2.98	False	True	2.9839699268341064	5.967432022094727	[['y', 4.769516944885254]]	-2.0	unseen	False	True	1.769516944885254	2.98346209526062	1.0	0.0	1618428599.0382	False		False			
6	ses-001	2	images_fmri/cannon/cannon_05s.jpg	unseen	1373	115	5	None	261.0	3837.0	5.0	unseen-between	1	2	7.47	2.98	True	True	7.449357986450195	10.434844017028809	[['a', 8.904575824737549]]	-2.0	unseen	False	True	1.434575824737549	2.9854860305786133	1.0	1.0	1618428603.5035	False		False			
6	ses-001	3	images_fmri/chandelier/chandelier_05s.jpg	unseen	1589	133	5	None	306.0	4458.0	5.0	unseen-within	1	2	11.94	2.98	False	True	11.917906045913696	14.900446891784668	[['y', 13.215698003768921]]	-2.0	unseen	False	True	1.2756980037689214	2.982540845870972	1.0	2.0	1618428607.9721	False		False			
6	ses-001	4	images_fmri/trap/trap_05s.jpg	seen	7937	662	5	None	1703.0	24023.0	5.0	seen-within	2	2	16.41	2.98	True	True	16.381212949752808	19.36455798149109	[['b', 17.56330680847168]]	2.0	seen	False	True	1.1533068084716795	2.983345031738281	1.0	3.0	1618428612.4354	False		False	0.0	355.657900094986	58.0
6	ses-001	5	images_fmri/radish/radish_05s.jpg	unseen	6101	509	5	None	1275.0	18161.0	5.0	unseen-within	1	2	20.88	2.98	True	False	20.86524796485901	23.832276105880737	[['a', 22.560261964797974]]	-2.0	unseen	False	True	1.6802619647979746	2.9670281410217285	1.0	4.0	1618428616.9194	False		False			
6	ses-001	6	images_fmri/cardigan/cardigan_05s.jpg	unseen	1421	119	5	None	274.0	4022.0	5.0	unseen-within	1	2	25.35	2.98	False	True	25.33113694190979	28.31504893302917	[['y', 26.92237091064453]]	-2.0	unseen	False	True	1.5723709106445298	2.9839119911193848	1.0	5.0	1618428621.3853	False		False			
6	ses-001	7	images_fmri/buggy/buggy_05s.jpg	unseen	1085	91	5	None	214.0	3214.0	5.0	unseen-within	1	2	29.82	2.98	False	True	29.797647953033447	32.780941009521484	[['y', 31.513705015182495]]	-2.0	unseen	False	True	1.6937050151824948	2.983293056488037	1.0	6.0	1618428625.8518	False		False			
6	ses-001	8	images_fmri/buggy/buggy_05s.jpg	seen	1085	91	5	None	214.0	3214.0	5.0	seen-within	2	2	34.29	2.98	False	False	34.26491594314575	37.24837493896485	[['x', 35.413259983062744]]	2.0	seen	False	True	1.123259983062745	2.983458995819092	1.0	7.0	1618428630.3191	False		False	0.0	4.467299938201904	1.0
6	ses-001	9	images_fmri/grapefruit/grapefruit_05s.jpg	unseen	3401	284	5	None	704.0	10092.0	5.0	unseen-between	1	2	38.76	2.98	True	False	38.73249101638794	41.71390295028687	[['a', 40.32946586608887]]	-2.0	unseen	False	True	1.5694658660888692	2.981411933898926	1.0	8.0	1618428634.7867	False		False			
6	ses-001	10	images_fmri/violin/violin_05s.jpg	unseen	8225	686	5	None	1765.0	24876.0	5.0	unseen-between	1	2	43.23	2.98	True	True	43.21459197998047	46.181917905807495	[['a', 44.54308080673218]]	-2.0	unseen	False	True	1.3130808067321809	2.9673259258270264	1.0	9.0	1618428639.2688	False		False			
6	ses-001	11	images_fmri/snorkel/snorkel_05s.jpg	unseen	6905	576	5	None	1479.0	20956.0	5.0	unseen-between	1	2	47.7	2.98	False	False	47.6798779964447	50.66295599937439	[['y', 49.2480628490448]]	-2.0	unseen	False	True	1.548062849044797	2.9830780029296875	1.0	10.0	1618428643.7341	False		False			
6	ses-001	12	images_fmri/backpack/backpack_05s.jpg	seen	281	24	5	None	50.0	713.0	5.0	seen-within	2	2	52.17	2.98	True	True	52.14617896080017	55.12948203086853	[['b', 53.72799491882324]]	2.0	seen	False	True	1.5579949188232405	2.98330307006836	1.0	11.0	1618428648.2004	False		False	0.0	49.16220021247864	11.0
6	ses-001	13	images_fmri/ashtray/ashtray_05s.jpg	unseen	221	19	5	None	42.0	582.0	5.0	unseen-within	1	2	56.64	2.98	False	True	56.61272192001343	59.59600496292114	[['y', 58.3732008934021]]	-2.0	unseen	False	True	1.733200893402099	2.983283042907715	1.0	12.0	1618428652.6669	False		False			
6	ses-001	14	images_fmri/handcuff/handcuff_05s.jpg	seen	3641	304	5	None	747.0	10699.0	5.0	seen-within	2	2	61.11	2.98	True	False	61.07940888404846	64.06259989738464	[['x', 62.210999965667725]]	2.0	seen	False	True	1.1009999656677252	2.9831910133361816	1.0	13.0	1618428657.1336	False		False	0.0	409.2895998954773	70.0
6	ses-001	15	images_fmri/omelet/omelet_05s.jpg	unseen	5165	431	5	None	1077.0	15312.0	5.0	unseen-between	1	2	65.58	2.98	True	True	65.56258797645569	68.52940392494202	[['a', 67.19700288772583]]	-2.0	unseen	False	True	1.6170028877258318	2.966815948486328	1.0	14.0	1618428661.6168	False		False			
6	ses-001	16	images_fmri/zucchini/zucchini_05s.jpg	unseen	8633	720	5	None	1854.0	26099.0	5.0	unseen-within	1	2	70.05	2.98	True	False	70.02905702590942	73.01237392425537	[['a', 71.86882781982422]]	-2.0	unseen	False	True	1.8188278198242216	2.983316898345948	1.0	15.0	1618428666.0832	False		False			
6	ses-001	17	images_fmri/ruler/ruler_05s.jpg	seen	6401	534	5	None	1342.0	19086.0	5.0	seen-within	2	2	74.52	2.98	False	False	74.49569702148438	77.47889399528503	[['x', 76.08683896064758]]	2.0	seen	False	True	1.566838960647587	2.983196973800659	1.0	16.0	1618428670.5499	False		False	0.0	360.12220001220703	59.0
6	ses-001	18	images_fmri/aircraft_carrier/aircraft_carrier_05s.jpg	unseen	29	3	5	None	10.0	131.0	5.0	unseen-within	1	2	78.99	2.98	True	False	78.96218204498291	81.94544887542725	[['a', 81.28478789329529]]	-2.0	unseen	False	True	2.294787893295293	2.983266830444336	1.0	17.0	1618428675.0164	False		False			
6	ses-001	19	images_fmri/cardigan/cardigan_05s.jpg	seen	1421	119	5	None	274.0	4022.0	5.0	seen-within	2	2	83.46	2.98	False	True	83.429044008255	86.41236591339111	[['b', 84.76912093162537]]	2.0	seen	False	True	1.3091209316253725	2.9833219051361084	1.0	18.0	1618428679.4832	False		False	0.0	58.09790015220642	13.0
6	ses-001	20	images_fmri/dishrag/dishrag_05s.jpg	unseen	2429	203	5	None	491.0	7105.0	5.0	unseen-between	1	2	87.92999999999998	2.98	False	False	87.91201090812683	90.87916088104248	[['y', 89.22044086456299]]	-2.0	unseen	False	True	1.29044086456301	2.9671499729156494	1.0	19.0	1618428683.9662	False		False			
6	ses-001	21	images_fmri/aircraft_carrier/aircraft_carrier_05s.jpg	seen	29	3	5	None	10.0	131.0	5.0	seen-within	2	2	92.4	2.98	True	False	92.37850499153136	95.3626320362091	[['x', 93.64803791046143]]	2.0	seen	False	True	1.24803791046142	2.9841270446777344	1.0	20.0	1618428688.4327	False		False	0.0	13.416299819946287	3.0
6	ses-001	22	images_fmri/envelope/envelope_05s.jpg	unseen	2789	233	5	None	559.0	8099.0	5.0	unseen-within	1	2	96.87	2.98	True	True	96.8452479839325	99.82829189300536	[['a', 98.43286800384521]]	-2.0	unseen	False	True	1.5628680038452103	2.983043909072876	1.0	21.0	1618428692.8994	False		False			
6	ses-001	23	images_fmri/birdhouse/birdhouse_05s.jpg	unseen	665	56	5	None	132.0	2025.0	5.0	unseen-between	1	2	101.34	2.98	True	True	101.31167197227478	104.29486799240112	[['a', 103.29459691047668]]	-2.0	unseen	False	True	1.9545969104766807	2.9831960201263428	1.0	22.0	1618428697.3659	False		False			
6	ses-001	24	images_fmri/drain/drain_05s.jpg	unseen	2573	215	5	None	516.0	7488.0	5.0	unseen-between	1	2	105.81	2.98	False	False	105.77826809883118	108.761785030365	[['y', 107.03273296356201]]	-2.0	unseen	False	True	1.2227329635620094	2.983516931533813	1.0	23.0	1618428701.8325	False		False			
6	ses-001	25	images_fmri/space_shuttle/space_shuttle_05s.jpg	unseen	7013	585	5	None	1502.0	21250.0	5.0	unseen-between	1	2	110.28	2.98	True	False	110.26135897636414	113.228492975235	[['a', 111.92953085899353]]	-2.0	unseen	False	True	1.6495308589935291	2.9671339988708496	1.0	24.0	1618428706.3155	False		False			
6	ses-001	26	images_fmri/mousetrap/mousetrap_05s.jpg	unseen	4949	413	5	None	1030.0	14683.0	5.0	unseen-between	1	2	114.75	2.98	False	False	114.72798299789427	117.71133303642272	[['y', 116.7183837890625]]	-2.0	unseen	False	True	1.9683837890625	2.9833500385284424	1.0	25.0	1618428710.7822	False		False			
6	ses-001	27	images_fmri/lime/lime_05s.jpg	unseen	4397	367	5	None	931.0	13295.0	5.0	unseen-within	1	2	119.22	2.98	False	False	119.19462990760805	122.17780900001526	[['y', 120.2904999256134]]	-2.0	unseen	False	True	1.0704999256134045	2.9831790924072266	1.0	26.0	1618428715.2488	False		False			
6	ses-001	28	images_fmri/lectern/lectern_05s.jpg	unseen	4277	357	5	None	909.0	13002.0	5.0	unseen-within	1	2	123.69	2.98	True	True	123.66140294075012	126.64432001113892	[['a', 126.02875089645386]]	-2.0	unseen	False	True	2.33875089645386	2.982917070388794	1.0	27.0	1618428719.7156	False		False			
6	ses-001	29	images_fmri/praying_mantis/praying_mantis_05s.jpg	unseen	5933	495	5	None	1239.0	17619.0	5.0	unseen-within	1	2	128.16	2.98	True	True	128.1443190574646	131.1114010810852	[['a', 129.59544777870178]]	-2.0	unseen	False	True	1.4354477787017856	2.967082023620605	1.0	28.0	1618428724.1985	False		False			
6	ses-001	30	images_fmri/moth/moth_05n.jpg	unseen	4913	410	5	None	1024.0	14589.0	5.0	unseen-between	1	2	132.63	2.98	True	False	132.61082792282104	135.59408497810364	[['a', 134.19151782989502]]	-2.0	unseen	False	True	1.561517829895024	2.9832570552825928	1.0	29.0	1618428728.665	False		False			
6	ses-001	31	images_fmri/marshmallow/marshmallow_05s.jpg	unseen	4649	388	5	None	978.0	13938.0	5.0	unseen-between	1	2	137.1	2.98	True	True	137.0774040222168	140.06067299842834	[['a', 138.15965485572815]]	-2.0	unseen	False	True	1.059654855728155	2.983268976211548	1.0	30.0	1618428733.1316	False		False			
6	ses-001	32	images_fmri/bison/bison_05s.jpg	seen	677	57	5	None	135.0	2067.0	5.0	seen-within	2	2	141.57	2.98	True	False	141.54432106018066	144.5292580127716	[['x', 142.70326495170593]]	2.0	seen	False	True	1.1332649517059394	2.9849369525909424	1.0	31.0	1618428737.5985	False		False	0.0	288.60920000076294	43.0
6	ses-001	33	images_fmri/skunk/skunk_05s.jpg	unseen	6821	569	5	None	1460.0	20698.0	5.0	unseen-within	1	2	146.04	2.98	False	True	146.01048588752747	148.99412488937378	[['y', 147.36675882339478]]	-2.0	unseen	False	True	1.3267588233947831	2.983639001846313	1.0	32.0	1618428742.0647	False		False			
6	ses-001	34	images_fmri/ashtray/ashtray_05s.jpg	seen	221	19	5	None	42.0	582.0	5.0	seen-within	2	2	150.51	2.98	False	True	150.49377703666687	153.46021604537964	[['b', 151.78036785125732]]	2.0	seen	False	True	1.270367851257333	2.966439008712769	1.0	33.0	1618428746.548	False		False	0.0	93.88110017776488	21.0
6	ses-001	35	images_fmri/glass/glass_05s.jpg	seen	3269	273	5	None	678.0	9712.0	5.0	seen-within	2	2	154.98	2.98	False	False	154.96108603477478	157.94351291656494	[['x', 156.31426000595093]]	2.0	seen	False	True	1.334260005950938	2.982426881790161	1.0	34.0	1618428751.0153	False		False	0.0	270.7272999286652	39.0
6	ses-001	36	images_fmri/mailbox/mailbox_05s.jpg	unseen	4553	380	5	None	961.0	13690.0	5.0	unseen-between	1	2	159.45	2.98	False	True	159.4272940158844	162.4104220867157	[['y', 160.6301109790802]]	-2.0	unseen	False	True	1.1801109790802116	2.983128070831299	1.0	35.0	1618428755.4815	False		False			
6	ses-001	37	images_fmri/closet/closet_05s.jpg	unseen	1829	153	5	None	361.0	5218.0	5.0	unseen-within	1	2	163.92	2.98	False	False	163.89375400543213	166.87663793563843	[['y', 165.16253781318665]]	-2.0	unseen	False	True	1.242537813186658	2.982883930206299	1.0	36.0	1618428759.9479	False		False			
6	ses-001	38	images_fmri/mascara/mascara_05s.jpg	unseen	4661	389	5	None	979.0	13951.0	5.0	unseen-within	1	2	168.39	2.98	False	False	168.36030793190002	171.34346294403076	[['y', 169.62326884269714]]	-2.0	unseen	False	True	1.2332688426971572	2.9831550121307373	1.0	37.0	1618428764.4145	False		False			
6	ses-001	39	images_fmri/giraffe/giraffe_05s.jpg	unseen	3245	271	5	None	676.0	9675.0	5.0	unseen-between	1	2	172.86	2.98	True	False	172.84320497512817	175.8096740245819	[['x', 174.6553328037262]]	2.0	seen	True	True	1.7953328037261826	2.966469049453736	1.0	38.0	1618428768.8974	False		False			
6	ses-001	40	images_fmri/altar/altar_05s.jpg	unseen	77	7	5	None	17.0	236.0	5.0	unseen-within	1	2	177.32999999999996	2.98	True	True	177.30977201461792	180.2930428981781	[['a', 178.96011185646057]]	-2.0	unseen	False	True	1.6301118564606156	2.9832708835601807	1.0	39.0	1618428773.364	False		False			
6	ses-001	41	images_fmri/radish/radish_05s.jpg	seen	6101	509	5	None	1275.0	18161.0	5.0	seen-within	2	2	181.8	2.98	True	True	181.77683901786804	184.75995588302607	[['b', 183.12254190444946]]	2.0	seen	False	True	1.3225419044494515	2.983116865158081	1.0	40.0	1618428777.831	False		False	0.0	160.91160011291504	36.0
6	ses-001	42	images_fmri/t-shirt/t-shirt_05s.jpg	unseen	7457	622	5	None	1607.0	22700.0	5.0	unseen-within	1	2	186.27	2.98	False	True	186.24282097816467	189.2265748977661	[['y', 187.77027583122253]]	-2.0	unseen	False	True	1.500275831222524	2.9837539196014404	1.0	41.0	1618428782.297	False		False			
6	ses-001	43	images_fmri/mandolin/mandolin_05s.jpg	seen	4589	383	5	None	966.0	13766.0	5.0	seen-within	2	2	190.74	2.98	True	True	190.70975995063785	193.69350290298465	[['b', 192.45194101333618]]	2.0	seen	False	True	1.7119410133361723	2.9837429523468018	1.0	42.0	1618428786.7639	False		False	0.0	467.4046001434326	83.0
6	ses-001	44	images_fmri/hood/hood_05s.jpg	unseen	3809	318	5	None	792.0	11331.0	5.0	unseen-within	1	2	195.21	2.98	False	True	195.1954209804535	198.16145205497745	[['y', 196.8229329586029]]	-2.0	unseen	False	True	1.612932958602897	2.966031074523926	1.0	43.0	1618428791.2496	False		False			
6	ses-001	45	images_fmri/chandelier/chandelier_05s.jpg	seen	1589	133	5	None	306.0	4458.0	5.0	seen-within	2	2	199.68	2.98	True	True	199.6591761112213	202.6425149440765	[['b', 201.04924988746643]]	2.0	seen	False	True	1.3692498874664238	2.9833388328552246	1.0	44.0	1618428795.7134	False		False	0.0	187.74129986763	42.0
6	ses-001	46	images_fmri/bamboo/bamboo_05n.jpg	unseen	341	29	5	None	63.0	936.0	5.0	unseen-within	1	2	204.15	2.98	False	False	204.1257491111756	207.1089880466461	[['y', 205.23991990089417]]	-2.0	unseen	False	True	1.0899199008941594	2.983238935470581	1.0	45.0	1618428800.1799	False		False			
6	ses-001	47	images_fmri/bamboo/bamboo_05n.jpg	seen	341	29	5	None	63.0	936.0	5.0	seen-within	2	2	208.62	2.98	True	False	208.5926489830017	211.57639908790588	[['a', 210.0097689628601]]	-2.0	unseen	True	True	1.3897689628601029	2.983750104904175	1.0	46.0	1618428804.6468	False		False	0.0	4.466900110244751	1.0
6	ses-001	48	images_fmri/cufflink/cufflink_05s.jpg	unseen	2285	191	5	None	459.0	6642.0	5.0	unseen-between	1	2	213.09	2.98	False	True	213.05875301361084	216.04250502586365	[['y', 214.4390709400177]]	-2.0	unseen	False	True	1.3490709400176968	2.983752012252808	1.0	47.0	1618428809.1129	False		False			
6	ses-001	49	images_fmri/altar/altar_05s.jpg	seen	77	7	5	None	17.0	236.0	5.0	seen-within	2	2	217.56	2.98	False	False	217.54202508926392	220.5091428756714	[['x', 218.74994277954102]]	2.0	seen	False	True	1.1899427795410134	2.9671177864074707	1.0	48.0	1618428813.5962	False		False	0.0	40.232199907302856	9.0
6	ses-001	50	images_fmri/penguin/penguin_05s.jpg	unseen	5489	458	5	None	1146.0	16298.0	5.0	unseen-between	1	2	222.03	2.98	False	False	222.00944304466248	224.9925720691681	[['y', 223.25874495506287]]	-2.0	unseen	False	True	1.228744955062865	2.9831290245056152	1.0	49.0	1618428818.0636	False		False			
6	ses-001	51	images_fmri/tuxedo/tuxedo_05s.jpg	unseen	8069	673	5	None	1739.0	24510.0	5.0	unseen-between	1	2	226.5	2.98	True	True	226.4751479625702	229.45849800109863	[['a', 228.00209283828735]]	-2.0	unseen	False	True	1.5020928382873535	2.9833500385284424	1.0	50.0	1618428822.5293	False		False			
6	ses-001	52	images_fmri/lectern/lectern_05s.jpg	seen	4277	357	5	None	909.0	13002.0	5.0	seen-within	2	2	230.97	2.98	True	False	230.94219303131104	233.92544507980347	[['x', 232.4021279811859]]	2.0	seen	False	True	1.4321279811859142	2.983252048492432	1.0	51.0	1618428826.9964	False		False	0.0	107.28080010414124	24.0
6	ses-001	53	images_fmri/plum/plum_05n.jpg	unseen	5741	479	5	None	1204.0	17109.0	5.0	unseen-between	1	2	235.44	2.98	False	True	235.4085109233856	238.3917679786682	[['y', 237.43059396743774]]	-2.0	unseen	False	True	1.9905939674377464	2.9832570552825928	1.0	52.0	1618428831.4627	False		False			
6	ses-001	54	images_fmri/pineapple/pineapple_05s.jpg	unseen	5621	469	5	None	1183.0	16833.0	5.0	unseen-between	1	2	239.91	2.98	False	False	239.89306497573853	242.86492490768435	[['y', 240.91168093681335]]	-2.0	unseen	False	True	1.001680936813358	2.971859931945801	1.0	53.0	1618428835.9472	False		False			
6	ses-001	55	images_fmri/roof_rack/roof_rack_05s.jpg	unseen	6377	532	5	None	1330.0	18918.0	5.0	unseen-within	1	2	244.38	2.98	False	True	244.35858702659607	247.34135603904724	[['y', 246.3187198638916]]	-2.0	unseen	False	True	1.938719863891606	2.982769012451172	1.0	54.0	1618428840.4128	False		False			
6	ses-001	56	images_fmri/undershirt/undershirt_05s.jpg	unseen	8129	678	5	None	1745.0	24597.0	5.0	unseen-between	1	2	248.85	2.98	False	False	248.82529091835025	251.8079080581665	[['y', 250.29380083084106]]	-2.0	unseen	False	True	1.44380083084107	2.982617139816284	1.0	55.0	1618428844.8795	False		False			
6	ses-001	57	images_fmri/gel/gel_05s.jpg	seen	3233	270	5	None	670.0	9601.0	5.0	seen-within	2	2	253.32	2.98	True	True	253.291650056839	256.27439308166504	[['b', 254.862872838974]]	2.0	seen	False	True	1.5428728389740058	2.98274302482605	1.0	56.0	1618428849.3458	False		False	0.0	436.1060998439789	76.0
6	ses-001	58	images_fmri/praying_mantis/praying_mantis_05s.jpg	seen	5933	495	5	None	1239.0	17619.0	5.0	seen-within	2	2	257.79	2.98	False	False	257.7744579315185	260.740935087204	[['x', 258.7843689918518]]	2.0	seen	False	True	0.9943689918517862	2.966477155685425	1.0	57.0	1618428853.8286	False		False	0.0	129.63010001182556	29.0
6	ses-001	59	images_fmri/envelope/envelope_05s.jpg	seen	2789	233	5	None	559.0	8099.0	5.0	seen-within	2	2	262.26	2.98	True	False	262.241003036499	265.22468090057373	[['x', 263.44197392463684]]	2.0	seen	False	True	1.18197392463685	2.983677864074707	1.0	58.0	1618428858.2952	False		False	0.0	165.39580011367798	37.0
6	ses-001	60	images_fmri/trashcan/trashcan_05s.jpg	seen	7949	663	5	None	1705.0	24050.0	5.0	seen-within	2	2	266.73	2.98	True	False	266.70792293548584	269.69078493118286	[['x', 267.6218659877777]]	2.0	seen	False	True	0.8918659877776918	2.982861995697021	1.0	59.0	1618428862.7621	False		False	0.0	480.8215000629425	86.0
6	ses-001	1	images_fmri/cashew/cashew_05s.jpg	unseen	1457	122	5	None	282.0	4127.0	5.0	unseen-within	1	3	3.0	2.98	False	True	2.9833059310913086	5.950202941894531	[['y', 4.509702920913696]]	-2.0	unseen	False	True	1.5097029209136963	2.9668970108032227	1.0	0.0	1618428967.6092	False		False			
6	ses-001	2	images_fmri/cashew/cashew_05s.jpg	seen	1457	122	5	None	282.0	4127.0	5.0	seen-within	2	3	7.47	2.98	False	True	7.449747085571289	10.433130025863647	[['b', 8.701478958129883]]	2.0	seen	False	True	1.231478958129883	2.9833829402923584	1.0	1.0	1618428972.0756	False		False	0.0	4.466399908065796	1.0
6	ses-001	3	images_fmri/shrimp/shrimp_05s.jpg	unseen	6749	563	5	None	1439.0	20405.0	5.0	unseen-within	1	3	11.94	2.98	True	False	11.916686058044434	14.900464057922363	[['a', 13.428383827209473]]	-2.0	unseen	False	True	1.4883838272094732	2.9837779998779297	1.0	2.0	1618428976.5426	False		False			
6	ses-001	4	images_fmri/sloth/sloth_05s.jpg	unseen	6857	572	5	None	1472.0	20855.0	5.0	unseen-within	1	3	16.41	2.98	False	True	16.38653302192688	19.370784997940063	[['y', 18.399290800094604]]	-2.0	unseen	False	True	1.9892908000946044	2.984251976013184	1.0	3.0	1618428981.0124	False		False			
6	ses-001	5	images_fmri/iron/iron_05s.jpg	unseen	3953	330	5	None	833.0	11908.0	5.0	unseen-within	1	3	20.88	2.98	True	False	20.868175983428955	23.83468198776245	[['a', 22.448120832443237]]	-2.0	unseen	False	True	1.5681208324432383	2.966506004333496	1.0	4.0	1618428985.4941	False		False			
6	ses-001	6	images_fmri/nose/nose_05s.jpg	unseen	5093	425	5	None	1064.0	15137.0	5.0	unseen-within	1	3	25.35	2.98	True	False	25.33262586593628	28.299635887146	[['a', 26.64244294166565]]	-2.0	unseen	False	True	1.292442941665648	2.967010021209717	1.0	5.0	1618428989.9585	False		False			
6	ses-001	7	images_fmri/chest1/chest1_05s.jpg	unseen	1649	138	5	None	320.0	4645.0	5.0	unseen-between	1	3	29.82	2.98	True	True	29.79974603652954	32.78253388404846	[['a', 31.953380823135376]]	-2.0	unseen	False	True	2.133380823135376	2.982787847518921	1.0	6.0	1618428994.4256	False		False			
6	ses-001	8	images_fmri/iron/iron_05s.jpg	seen	3953	330	5	None	833.0	11908.0	5.0	seen-within	2	3	34.29	2.98	True	False	34.26608395576477	37.24907088279724	[['x', 35.3879029750824]]	2.0	seen	False	True	1.0979029750823983	2.9829869270324707	1.0	7.0	1618428998.892	False		False	0.0	13.397899866104126	3.0
6	ses-001	9	images_fmri/touchpad/touchpad_05s.jpg	unseen	7877	657	5	None	1692.0	23874.0	5.0	unseen-between	1	3	38.76	2.98	False	True	38.73297786712647	41.71564102172852	[['y', 40.52619290351868]]	-2.0	unseen	False	True	1.7661929035186787	2.982663154602051	1.0	8.0	1618429003.3589	False		False			
6	ses-001	10	images_fmri/popsicle/popsicle_05s.jpg	unseen	5837	487	5	None	1226.0	17445.0	5.0	unseen-within	1	3	43.23	2.98	False	False	43.21552300453186	46.18263006210327	[['y', 45.03528189659119]]	-2.0	unseen	False	True	1.8052818965911896	2.967107057571411	1.0	9.0	1618429007.8414	False		False			
6	ses-001	11	images_fmri/bagel/bagel_05s.jpg	unseen	305	26	5	None	56.0	816.0	5.0	unseen-between	1	3	47.7	2.98	True	True	47.682146072387695	50.66537094116211	[['a', 50.33798885345459]]	-2.0	unseen	False	True	2.637988853454587	2.983224868774414	1.0	10.0	1618429012.308	False		False			
6	ses-001	12	images_fmri/tie/tie_05s.jpg	unseen	7709	643	5	None	1659.0	23418.0	5.0	unseen-between	1	3	52.17	2.98	True	True	52.14865303039551	55.131996870040894	[['a', 53.5926239490509]]	-2.0	unseen	False	True	1.4226239490509016	2.9833438396453857	1.0	11.0	1618429016.7746	False		False			
6	ses-001	13	images_fmri/radiator/radiator_05s.jpg	unseen	6089	508	5	None	1273.0	18133.0	5.0	unseen-within	1	3	56.64	2.98	False	False	56.61578893661499	59.59850788116455	[['y', 58.21587586402893]]	-2.0	unseen	False	True	1.57587586402893	2.9827189445495605	1.0	12.0	1618429021.2417	False		False			
6	ses-001	14	images_fmri/skunk/skunk_05s.jpg	seen	6821	569	5	None	1460.0	20698.0	5.0	seen-within	2	3	61.11	2.98	False	False	61.08320593833923	64.06716895103455	[['x', 62.73083186149597]]	2.0	seen	False	True	1.6208318614959722	2.9839630126953125	1.0	13.0	1618429025.7091	False		False	0.0	283.6444001197815	41.0
6	ses-001	15	images_fmri/record/record_05s.jpg	unseen	6197	517	5	None	1296.0	18435.0	5.0	unseen-between	1	3	65.58	2.98	False	True	65.5650269985199	68.53194308280945	[['y', 67.51802587509155]]	-2.0	unseen	False	True	1.9380258750915544	2.966916084289551	1.0	14.0	1618429030.1909	False		False			
6	ses-001	16	images_fmri/mascara/mascara_05s.jpg	seen	4661	389	5	None	979.0	13951.0	5.0	seen-within	2	3	70.05	2.98	True	True	70.03160285949707	73.01484107971191	[['b', 71.47574281692505]]	2.0	seen	False	True	1.4257428169250517	2.983238220214844	1.0	15.0	1618429034.6575	False		False	0.0	270.2430000305176	38.0
6	ses-001	17	images_fmri/popsicle/popsicle_05s.jpg	seen	5837	487	5	None	1226.0	17445.0	5.0	seen-within	2	3	74.52	2.98	True	True	74.49851703643799	77.48142385482788	[['b', 75.73410201072693]]	2.0	seen	False	True	1.2141020107269327	2.9829068183898926	1.0	16.0	1618429039.1244	False		False	0.0	31.282999992370605	7.0
6	ses-001	18	images_fmri/punching_bag/punching_bag_05s.jpg	unseen	6029	503	5	None	1257.0	17906.0	5.0	unseen-between	1	3	78.99	2.98	False	False	78.96536993980408	81.948646068573	[['y', 80.22913479804993]]	-2.0	unseen	False	True	1.239134798049932	2.983276128768921	1.0	17.0	1618429043.5913	False		False			
6	ses-001	19	images_fmri/pencil_sharpener/pencil_sharpener_05s.jpg	unseen	5477	457	5	None	1144.0	16273.0	5.0	unseen-between	1	3	83.46	2.98	True	True	83.43161201477051	86.41521501541138	[['a', 85.09769296646118]]	-2.0	unseen	False	True	1.637692966461188	2.983603000640869	1.0	18.0	1618429048.0575	False		False			
6	ses-001	20	images_fmri/lock/lock_05s.jpg	unseen	4493	375	5	None	941.0	13434.0	5.0	unseen-between	1	3	87.92999999999998	2.98	True	False	87.91452503204346	90.88162398338318	[['a', 90.1877498626709]]	-2.0	unseen	False	True	2.25774986267092	2.9670989513397217	1.0	19.0	1618429052.5404	False		False			
6	ses-001	21	images_fmri/pecan/pecan_05s.jpg	unseen	5441	454	5	None	1136.0	16171.0	5.0	unseen-within	1	3	92.4	2.98	False	True	92.38143801689148	95.36440300941469	[['y', 94.34180092811584]]	-2.0	unseen	False	True	1.941800928115839	2.9829649925231934	1.0	20.0	1618429057.0073	False		False			
6	ses-001	22	images_fmri/umbrella/umbrella_05s.jpg	unseen	8117	677	5	None	1744.0	24581.0	5.0	unseen-between	1	3	96.87	2.98	True	False	96.84796500205994	99.83133888244627	[['a', 98.29949998855591]]	-2.0	unseen	False	True	1.4294999885559037	2.9833738803863525	1.0	21.0	1618429061.4739	False		False			
6	ses-001	23	images_fmri/pinwheel/pinwheel_05s.jpg	unseen	5645	471	5	None	1186.0	16870.0	5.0	unseen-between	1	3	101.34	2.98	True	False	101.31457996368408	104.2973849773407	[['a', 102.57337188720703]]	-2.0	unseen	False	True	1.2333718872070278	2.982805013656616	1.0	22.0	1618429065.9405	False		False			
6	ses-001	24	images_fmri/extinguisher/extinguisher_05s.jpg	unseen	2801	234	5	None	564.0	8163.0	5.0	unseen-between	1	3	105.81	2.98	False	True	105.78119707107544	108.7664749622345	[['y', 107.56367182731628]]	-2.0	unseen	False	True	1.753671827316282	2.9852778911590576	1.0	23.0	1618429070.4071	False		False			
6	ses-001	25	images_fmri/helicopter/helicopter_05s.jpg	unseen	3737	312	5	None	776.0	11103.0	5.0	unseen-between	1	3	110.28	2.98	False	True	110.26489090919496	113.2359299659729	[['y', 112.4913477897644]]	-2.0	unseen	False	True	2.211347789764403	2.971039056777954	1.0	24.0	1618429074.8908	False		False			
6	ses-001	26	images_fmri/toaster/toaster_05s.jpg	unseen	7757	647	5	None	1667.0	23530.0	5.0	unseen-within	1	3	114.75	2.98	True	True	114.7323670387268	117.71580696105956	[['a', 116.97946882247925]]	-2.0	unseen	False	True	2.229468822479248	2.983439922332764	1.0	25.0	1618429079.3583	False		False			
6	ses-001	27	images_fmri/puck/puck_05s.jpg	unseen	5981	499	5	None	1246.0	17720.0	5.0	unseen-between	1	3	119.22	2.98	True	False	119.19712090492249	122.18035793304443	[['a', 120.99958682060242]]	-2.0	unseen	False	True	1.779586820602418	2.983237028121948	1.0	26.0	1618429083.823	False		False			
6	ses-001	28	images_fmri/shrimp/shrimp_05s.jpg	seen	6749	563	5	None	1439.0	20405.0	5.0	seen-within	2	3	123.69	2.98	False	False	123.66350507736206	126.6472680568695	[['x', 124.76253986358643]]	2.0	seen	False	True	1.072539863586428	2.9837629795074463	1.0	27.0	1618429088.2894	False		False	0.0	111.74680018424988	25.0
6	ses-001	29	images_fmri/ball/ball_05s.jpg	unseen	317	27	5	None	60.0	884.0	5.0	unseen-between	1	3	128.16	2.98	True	False	128.13056588172913	131.11344003677368	[['a', 130.32227897644043]]	-2.0	unseen	False	True	2.162278976440433	2.982874155044556	1.0	28.0	1618429092.7565	False		False			
6	ses-001	30	images_fmri/chalk/chalk_05s.jpg	unseen	1565	131	5	None	303.0	4415.0	5.0	unseen-within	1	3	132.63	2.98	False	True	132.6134159564972	135.5803849697113	[['y', 134.6543049812317]]	-2.0	unseen	False	True	2.024304981231694	2.966969013214112	1.0	29.0	1618429097.2393	False		False			
6	ses-001	31	images_fmri/garbage/garbage_05s.jpg	unseen	3161	264	5	None	656.0	9423.0	5.0	unseen-within	1	3	137.1	2.98	True	False	137.07998204231262	140.06317806243896	[['a', 139.31288981437683]]	-2.0	unseen	False	True	2.2128898143768367	2.9831960201263428	1.0	30.0	1618429101.7059	False		False			
6	ses-001	32	images_fmri/sloth/sloth_05s.jpg	seen	6857	572	5	None	1472.0	20855.0	5.0	seen-within	2	3	141.57	2.98	True	True	141.54695987701416	144.53024792671204	[['b', 142.77210092544556]]	2.0	seen	False	True	1.2021009254455637	2.983288049697876	1.0	31.0	1618429106.1729	False		False	0.0	125.16050004959106	28.0
6	ses-001	33	images_fmri/fig/fig_05s.jpg	unseen	2909	243	5	None	582.0	8423.0	5.0	unseen-between	1	3	146.04	2.98	False	True	146.01392197608948	148.9963140487671	[['y', 147.7735719680786]]	-2.0	unseen	False	True	1.7335719680786212	2.9823920726776123	1.0	32.0	1618429110.6398	False		False			
6	ses-001	34	images_fmri/shovel/shovel_05s.jpg	unseen	6701	559	5	None	1433.0	20319.0	5.0	unseen-within	1	3	150.51	2.98	False	False	150.4963960647583	153.46331787109375	[['y', 152.45111680030823]]	-2.0	unseen	False	True	1.9411168003082369	2.966921806335449	1.0	33.0	1618429115.1223	False		False			
6	ses-001	35	images_fmri/bassinet/bassinet_05s.jpg	unseen	437	37	5	None	86.0	1271.0	5.0	unseen-between	1	3	154.98	2.98	False	False	154.96282386779785	157.94883608818054	[['y', 158.04413485527039]]	-2.0	unseen	False	True	3.064134855270396	2.9860122203826904	1.0	34.0	1618429119.5887	False		False			
6	ses-001	36	images_fmri/hood/hood_05s.jpg	seen	3809	318	5	None	792.0	11331.0	5.0	seen-within	2	3	159.45	2.98	True	True	159.4317979812622	162.41548705101013	[['b', 160.624449968338]]	2.0	seen	False	True	1.174449968338024	2.983689069747925	1.0	35.0	1618429124.0577	False		False	0.0	332.8080999851227	52.0
6	ses-001	37	images_fmri/banana_split/banana_split_05s.jpg	unseen	365	31	5	None	66.0	982.0	5.0	unseen-between	1	3	163.92	2.98	False	True	163.90388894081116	166.8838300704956	[['y', 165.28685784339905]]	-2.0	unseen	False	True	1.3668578433990604	2.979941129684448	1.0	36.0	1618429128.5298	False		False			
6	ses-001	38	images_fmri/wheelbarrow/wheelbarrow_05s.jpg	unseen	8429	703	5	None	1808.0	25468.0	5.0	unseen-between	1	3	168.39	2.98	True	True	168.36448907852173	171.34656500816345	[['b', 170.79610180854797]]	2.0	seen	True	True	2.406101808547988	2.982075929641724	1.0	37.0	1618429132.9904	False		False			
6	ses-001	39	images_fmri/shovel/shovel_05s.jpg	seen	6701	559	5	None	1433.0	20319.0	5.0	seen-within	2	3	172.86	2.98	True	False	172.84728693962097	175.8137629032135	[['x', 174.5114848613739]]	2.0	seen	False	True	1.6514848613738875	2.9664759635925293	1.0	38.0	1618429137.4732	False		False	0.0	22.350900173187256	5.0
6	ses-001	40	images_fmri/granola/granola_05s.jpg	unseen	3377	282	5	None	702.0	10055.0	5.0	unseen-between	1	3	177.32999999999996	2.98	False	False	177.31324005126953	180.29753804206848	[['y', 178.7332158088684]]	-2.0	unseen	False	True	1.4032158088684523	2.98429799079895	1.0	39.0	1618429141.9391	False		False			
6	ses-001	41	images_fmri/closet/closet_05s.jpg	seen	1829	153	5	None	361.0	5218.0	5.0	seen-within	2	3	181.8	2.98	True	False	181.7797560691833	184.76390886306763	[['x', 183.05171084403992]]	2.0	seen	False	True	1.2517108440399056	2.9841527938842773	1.0	40.0	1618429146.4057	False		False	0.0	386.457799911499	64.0
6	ses-001	42	images_fmri/nose/nose_05s.jpg	seen	5093	425	5	None	1064.0	15137.0	5.0	seen-within	2	3	186.27	2.98	False	False	186.2474708557129	189.22947788238525	[['x', 187.2716579437256]]	2.0	seen	False	True	1.0016579437255757	2.982007026672364	1.0	41.0	1618429150.8734	False		False	0.0	160.91490006446838	36.0
6	ses-001	43	images_fmri/toaster/toaster_05s.jpg	seen	7757	647	5	None	1667.0	23530.0	5.0	seen-within	2	3	190.74	2.98	False	True	190.7139339447021	193.6972708702088	[['b', 192.77168583869934]]	2.0	seen	False	True	2.031685838699332	2.983336925506592	1.0	42.0	1618429155.3398	False		False	0.0	75.98149991035461	17.0
6	ses-001	44	images_fmri/gauze/gauze_05s.jpg	unseen	3209	268	5	None	665.0	9539.0	5.0	unseen-between	1	3	195.21	2.98	True	False	195.196702003479	198.16402888298035	[['a', 197.15286588668823]]	-2.0	unseen	False	True	1.9428658866882245	2.9673268795013428	1.0	43.0	1618429159.8226	False		False			
6	ses-001	45	images_fmri/seagull/seagull_05s.jpg	unseen	6581	549	5	None	1396.0	19827.0	5.0	unseen-between	1	3	199.68	2.98	True	False	199.6624970436096	202.64653205871585	[['a', 201.19592785835266]]	-2.0	unseen	False	True	1.5159278583526543	2.984035015106201	1.0	44.0	1618429164.2884	False		False			
6	ses-001	46	images_fmri/roof_rack/roof_rack_05s.jpg	seen	6377	532	5	None	1330.0	18918.0	5.0	seen-within	2	3	204.15	2.98	False	True	204.1302740573883	207.1147148609161	[['b', 206.51261687278748]]	2.0	seen	False	True	2.36261687278747	2.984440803527832	1.0	45.0	1618429168.7562	False		False	0.0	328.3434000015259	51.0
6	ses-001	47	images_fmri/garbage/garbage_05s.jpg	seen	3161	264	5	None	656.0	9423.0	5.0	seen-within	2	3	208.62	2.98	True	False	208.5950489044189	211.578430891037	[['x', 209.79418182373047]]	2.0	seen	False	True	1.1741818237304642	2.983381986618042	1.0	46.0	1618429173.2209	False		False	0.0	71.51500010490417	16.0
6	ses-001	48	images_fmri/pecan/pecan_05s.jpg	seen	5441	454	5	None	1136.0	16171.0	5.0	seen-within	2	3	213.09	2.98	False	True	213.0617380142212	216.04507303237915	[['b', 214.99849390983582]]	2.0	seen	False	True	1.908493909835812	2.983335018157959	1.0	47.0	1618429177.6876	False		False	0.0	120.68029999732973	27.0
6	ses-001	49	images_fmri/butterfly/butterfly_05s.jpg	unseen	1193	100	5	None	230.0	3424.0	5.0	unseen-between	1	3	217.56	2.98	False	True	217.5445520877838	220.51187801361084	[['y', 218.98451399803162]]	-2.0	unseen	False	True	1.424513998031614	2.9673259258270264	1.0	48.0	1618429182.1705	False		False			
6	ses-001	50	images_fmri/lime/lime_05s.jpg	seen	4397	367	5	None	931.0	13295.0	5.0	seen-within	2	3	222.03	2.98	False	False	222.0115180015564	224.99446892738345	[['x', 224.23982977867126]]	2.0	seen	False	True	2.2098297786712635	2.9829509258270264	1.0	49.0	1618429186.6374	False		False	0.0	471.3885998725891	83.0
6	ses-001	51	images_fmri/odometer/odometer_05s.jpg	unseen	5141	429	5	None	1072.0	15240.0	5.0	unseen-between	1	3	226.5	2.98	False	False	226.47808289527893	229.4609749317169	[['y', 228.6576747894287]]	-2.0	unseen	False	True	2.157674789428711	2.9828920364379883	1.0	50.0	1618429191.104	False		False			
6	ses-001	52	images_fmri/chalk/chalk_05s.jpg	seen	1565	131	5	None	303.0	4415.0	5.0	seen-within	2	3	230.97	2.98	False	False	230.94430589675903	233.9277510643005	[['x', 232.16571879386902]]	2.0	seen	False	True	1.1957187938690197	2.983445167541504	1.0	51.0	1618429195.5702	False		False	0.0	98.33089995384216	22.0
6	ses-001	53	images_fmri/papaya/papaya_05s.jpg	unseen	5321	444	5	None	1112.0	15821.0	5.0	unseen-between	1	3	235.44	2.98	True	True	235.4111819267273	238.39406394958496	[['a', 237.259831905365]]	-2.0	unseen	False	True	1.8198319053649925	2.982882022857666	1.0	52.0	1618429200.0371	False		False			
6	ses-001	54	images_fmri/clarinet/clarinet_05n.jpg	unseen	1781	149	5	None	351.0	5079.0	5.0	unseen-between	1	3	239.91	2.98	True	False	239.894268989563	242.8609960079193	[['a', 242.1625587940216]]	-2.0	unseen	False	True	2.25255879402161	2.9667270183563232	1.0	53.0	1618429204.5202	False		False			
6	ses-001	55	images_fmri/pistachio/pistachio_05s.jpg	unseen	5657	472	5	None	1189.0	16909.0	5.0	unseen-between	1	3	244.38	2.98	True	True	244.360563993454	247.34381794929504	[['a', 246.4269847869873]]	-2.0	unseen	False	True	2.046984786987309	2.9832539558410645	1.0	54.0	1618429208.9865	False		False			
6	ses-001	56	images_fmri/battery/battery_05n.jpg	unseen	449	38	5	None	98.0	1473.0	5.0	unseen-between	1	3	248.85	2.98	False	True	248.82710194587708	251.81330490112305	[['y', 250.25571393966675]]	-2.0	unseen	False	True	1.4057139396667535	2.986202955245972	1.0	55.0	1618429213.453	False		False			
6	ses-001	57	images_fmri/zucchini/zucchini_05s.jpg	seen	8633	720	5	None	1854.0	26099.0	5.0	seen-within	2	3	253.32	2.98	False	True	253.29625988006592	256.2823600769043	[['b', 254.6670320034027]]	2.0	seen	False	True	1.3470320034027168	2.986100196838379	1.0	56.0	1618429217.9222	False		False	0.0	551.8389999866486	101.0
6	ses-001	58	images_fmri/ping-pong_table/ping-pong_table_05s.jpg	unseen	5633	470	5	None	1185.0	16857.0	5.0	unseen-between	1	3	257.79	2.98	True	False	257.760596036911	260.7434730529785	[['a', 259.6255397796631]]	-2.0	unseen	False	True	1.8355397796630653	2.982877016067505	1.0	57.0	1618429222.3865	False		False			
6	ses-001	59	images_fmri/t-shirt/t-shirt_05s.jpg	seen	7457	622	5	None	1607.0	22700.0	5.0	seen-within	2	3	262.26	2.98	False	False	262.2433829307556	265.210373878479	[['x', 263.44657588005066]]	2.0	seen	False	True	1.1865758800506685	2.9669909477233887	1.0	58.0	1618429226.8693	False		False	0.0	444.5722999572754	77.0
6	ses-001	60	images_fmri/radiator/radiator_05s.jpg	seen	6089	508	5	None	1273.0	18133.0	5.0	seen-within	2	3	266.73	2.98	True	True	266.7105338573456	269.6932759284973	[['b', 269.21816182136536]]	2.0	seen	False	True	2.4881618213653383	2.9827420711517334	1.0	59.0	1618429231.3364	False		False	0.0	210.0947000980377	47.0
6	ses-002	1	images_fmri/clipboard/clipboard_05s.jpg	unseen	1805	151	5	None	356.0	5152.0	5.0	unseen-within	1	1	3.0	2.98	True	False	2.9843339920043945	5.967032909393311	[['a', 5.798459053039551]]	-2.0	unseen	False	True	2.798459053039551	2.982698917388916	1.0	0.0	1619032743.5141	False		False			
6	ses-002	2	images_fmri/penguin/penguin_05s.jpg	seen	5489	458	5	None	1146.0	16298.0	5.0	seen-between	2	1	7.47	2.98	False	True	7.450851917266846	10.432918071746826	[['a', 9.474946975708008]]	1.0	seen	False	False	2.004946975708008	2.9820661544799805	1.0	1.0	1619032747.9806	False		False	7.0	0.0	72.0
6	ses-002	3	images_fmri/cage/cage_05s.jpg	unseen	1229	103	5	None	237.0	3522.0	5.0	unseen-within	1	1	11.94	2.98	True	False	11.917711973190308	14.900763034820557	[['a', 14.245417833328247]]	-2.0	unseen	False	True	2.305417833328248	2.983051061630249	1.0	2.0	1619032752.4474	False		False			
6	ses-002	4	images_fmri/coat_rack/coat_rack_05s.jpg	unseen	1853	155	5	None	371.0	5352.0	5.0	unseen-between	1	1	16.41	2.98	True	True	16.400367975234985	19.38285112380981	[['y', 18.661869049072266]]	1.0	seen	True	False	2.251869049072265	2.982483148574829	1.0	3.0	1619032756.9301	False		False			
6	ses-002	5	images_fmri/mushroom/mushroom_05n.jpg	unseen	4985	416	5	None	1041.0	14830.0	5.0	unseen-within	1	1	20.88	2.98	False	False	20.86607003211975	23.85162091255188	[['x', 22.163251876831055]]	2.0	seen	True	True	1.2832518768310557	2.985550880432129	1.0	4.0	1619032761.3958	False		False			
6	ses-002	6	images_fmri/possum/possum_05s.jpg	seen	5861	489	5	None	1229.0	17482.0	5.0	seen-between	2	1	25.35	2.98	True	False	25.337810039520264	28.31832504272461	[['x', 26.350175857543945]]	2.0	seen	False	True	1.000175857543944	2.9805150032043457	1.0	5.0	1619032765.8675	False		False	7.0	0.0	142.0
6	ses-002	7	images_fmri/ball/ball_05s.jpg	seen	317	27	5	None	60.0	884.0	5.0	seen-between	2	1	29.82	2.98	True	False	29.80496597290039	32.784356117248535	[['a', 31.314332962036133]]	-2.0	unseen	True	True	1.4943329620361323	2.9793901443481445	1.0	6.0	1619032770.3347	False		False	7.0	0.0	38.0
6	ses-002	8	images_fmri/extinguisher/extinguisher_05s.jpg	seen	2801	234	5	None	564.0	8163.0	5.0	seen-between	2	1	34.29	2.98	False	False	34.27299904823303	37.2499840259552	[['b', 36.590181827545166]]	-1.0	unseen	True	False	2.300181827545167	2.976984977722168	1.0	7.0	1619032774.8027	False		False	7.0	0.0	44.0
6	ses-002	9	images_fmri/sushi/sushi_05s.jpg	unseen	7385	616	5	None	1589.0	22440.0	5.0	unseen-within	1	1	38.76	2.98	True	False	38.75011110305786	41.733433961868286	[['a', 40.58437705039978]]	-2.0	unseen	False	True	1.8243770503997825	2.983322858810425	1.0	8.0	1619032779.2798	False		False			
6	ses-002	10	images_fmri/guacamole/guacamole_05s.jpg	unseen	3497	292	5	None	720.0	10315.0	5.0	unseen-within	1	1	43.23	2.98	False	True	43.21649193763733	46.1999409198761	[['y', 45.11470103263855]]	-2.0	unseen	False	True	1.884701032638553	2.983448982238769	1.0	9.0	1619032783.7462	False		False			
6	ses-002	11	images_fmri/fern/fern_05s.jpg	unseen	2873	240	5	None	578.0	8364.0	5.0	unseen-within	1	1	47.7	2.98	True	True	47.68561601638794	50.66652297973633	[['a', 49.362345933914185]]	-2.0	unseen	False	True	1.6623459339141815	2.9809069633483887	1.0	10.0	1619032788.2153	False		False			
6	ses-002	12	images_fmri/dishrag/dishrag_05s.jpg	seen	2429	203	5	None	491.0	7105.0	5.0	seen-between	2	1	52.17	2.98	False	True	52.150238037109375	55.13320302963257	[['y', 53.73402404785156]]	-2.0	unseen	True	True	1.5640240478515608	2.9829649925231934	1.0	11.0	1619032792.68	False		False	7.0	0.0	112.0
6	ses-002	13	images_fmri/clipboard/clipboard_05s.jpg	seen	1805	151	5	None	356.0	5152.0	5.0	seen-within	2	1	56.64	2.98	True	False	56.6174910068512	59.59826707839966	[['x', 57.69506788253784]]	2.0	seen	False	True	1.0550678825378412	2.980776071548462	1.0	12.0	1619032797.1472	False		False	0.0	53.6331000328064	12.0
6	ses-002	14	images_fmri/hamster/hamster_05s.jpg	unseen	3617	302	5	None	744.0	10659.0	5.0	unseen-within	1	1	61.11	2.98	False	False	61.10059595108032	64.06684112548828	[['y', 63.744077920913696]]	-2.0	unseen	False	True	2.634077920913697	2.966245174407959	1.0	13.0	1619032801.6303	False		False			
6	ses-002	15	images_fmri/punching_bag/punching_bag_05s.jpg	seen	6029	503	5	None	1257.0	17906.0	5.0	seen-between	2	1	65.58	2.98	False	True	65.56655311584473	68.55053496360779	[['b', 68.24149703979492]]	2.0	seen	False	True	2.661497039794924	2.983981847763061	1.0	14.0	1619032806.0963	False		False	7.0	0.0	57.0
6	ses-002	16	images_fmri/goalpost/goalpost_05s.jpg	unseen	3293	275	5	None	684.0	9793.0	5.0	unseen-within	1	1	70.05	2.98	False	True	70.03286099433899	73.0158998966217	[['x', 72.5191650390625]]	-1.0	unseen	False	False	2.469165039062503	2.983038902282715	1.0	15.0	1619032810.5626	False		False			
6	ses-002	17	images_fmri/train/train_05s.jpg	unseen	7925	661	5	None	1699.0	23972.0	5.0	unseen-within	1	1	74.52	2.98	True	False	74.50176906585693	77.48398089408875	[['b', 77.58942699432373]]	-1.0	unseen	False	False	3.0694269943237344	2.9822118282318115	1.0	16.0	1619032815.0315	False		False			
6	ses-002	18	images_fmri/soda_fountain/soda_fountain_05s.jpg	seen	6953	580	5	None	1492.0	21117.0	5.0	seen-between	2	1	78.99	2.98	True	True	78.98224306106567	81.951730966568	[['b', 80.81129288673401]]	2.0	seen	False	True	1.821292886734014	2.96948790550232	1.0	17.0	1619032819.512	False		False	7.0	0.0	171.0
6	ses-002	19	images_fmri/plum/plum_05n.jpg	seen	5741	479	5	None	1204.0	17109.0	5.0	seen-between	2	1	83.46	2.98	False	False	83.45266604423523	86.4164171218872	[['y', 85.64321303367615]]	-2.0	unseen	True	True	2.1832130336761537	2.963751077651977	1.0	18.0	1619032823.9824	False		False	7.0	0.0	86.0
6	ses-002	20	images_fmri/envelope/envelope_05s.jpg	seen	2789	233	5	None	559.0	8099.0	5.0	seen-within-between	3	1	87.92999999999998	2.98	False	True	87.91588497161865	90.89950704574584	[['b', 90.79677200317383]]	2.0	seen	False	True	2.8667720031738497	2.9836220741271973	1.0	19.0	1619032828.4456	False		False	7.0	0.0	81.0
6	ses-002	21	images_fmri/petal/petal_05s.jpg	unseen	5513	460	5	None	1159.0	16490.0	5.0	unseen-within	1	1	92.4	2.98	True	False	92.3830099105835	95.3668041229248	[['x', 93.79819202423096]]	2.0	seen	True	True	1.3981920242309511	2.9837942123413086	1.0	20.0	1619032832.9127	False		False			
6	ses-002	22	images_fmri/lock/lock_05s.jpg	seen	4493	375	5	None	941.0	13434.0	5.0	seen-between	2	1	96.87	2.98	True	True	96.8530089855194	99.83211302757265	[['a', 99.07094383239746]]	-2.0	unseen	True	True	2.2009438323974564	2.9791040420532227	1.0	21.0	1619032837.3827	False		False	7.0	0.0	62.0
6	ses-002	23	images_fmri/zebra/zebra_05s.jpg	unseen	8621	719	5	None	1852.0	26067.0	5.0	unseen-between	1	1	101.34	2.98	True	True	101.33162212371826	104.30171608924866	[['a', 102.9370448589325]]	-2.0	unseen	False	True	1.5970448589324917	2.9700939655303955	1.0	22.0	1619032841.8614	False		False			
6	ses-002	24	images_fmri/shrimp/shrimp_05s.jpg	seen	6749	563	5	None	1439.0	20405.0	5.0	seen-within-between	3	1	105.81	2.98	True	False	105.79634690284728	108.7796790599823	[['x', 107.16022992134094]]	2.0	seen	False	True	1.35022992134094	2.9833321571350098	1.0	23.0	1619032846.3261	False		False	7.0	0.0	56.0
6	ses-002	25	images_fmri/train/train_05s.jpg	seen	7925	661	5	None	1699.0	23972.0	5.0	seen-within	2	1	110.28	2.98	False	False	110.26359510421752	113.2461290359497	[['x', 111.2756860256195]]	2.0	seen	False	True	0.9956860256195056	2.9825339317321777	1.0	24.0	1619032850.7933	False		False	0.0	35.761799812316895	8.0
6	ses-002	26	images_fmri/chalk/chalk_05s.jpg	seen	1565	131	5	None	303.0	4415.0	5.0	seen-within-between	3	1	114.75	2.98	False	False	114.73273491859436	117.72143006324768	[['y', 117.7435359954834]]	-2.0	unseen	True	True	2.9935359954833984	2.9886951446533203	1.0	25.0	1619032855.2625	False		False	7.0	0.0	34.0
6	ses-002	27	images_fmri/oatmeal/oatmeal_05s.jpg	unseen	5117	427	5	None	1070.0	15212.0	5.0	unseen-within	1	1	119.22	2.98	True	True	119.2157289981842	122.18477296829224	[['y', 121.90706491470337]]	1.0	seen	True	False	2.6870649147033703	2.969043970108032	1.0	26.0	1619032859.7455	False		False			
6	ses-002	28	images_fmri/ball/ball_05s.jpg	seen	317	27	5	None	60.0	884.0	5.0	seen-between-within	3	1	123.69	2.98	True	False	123.68134498596191	126.65222692489624	[['x', 124.70400905609131]]	2.0	seen	False	True	1.0140090560913109	2.970881938934326	1.0	27.0	1619032864.2111	False		False	0.0	93.87639999389648	21.0
6	ses-002	29	images_fmri/okra/okra_05s.jpg	unseen	5153	430	5	None	1075.0	15285.0	5.0	unseen-between	1	1	128.16	2.98	True	True	128.15106391906738	131.13118505477905	[['y', 131.01147985458374]]	1.0	seen	True	False	2.851479854583744	2.98012113571167	1.0	28.0	1619032868.6808	False		False			
6	ses-002	30	images_fmri/refrigerator/refrigerator_05s.jpg	seen	6209	518	5	None	1301.0	18521.0	5.0	seen-within-between	3	1	132.63	2.98	False	False	132.61418890953064	135.59765601158142	[['x', 134.36419796943665]]	2.0	seen	False	True	1.73419796943665	2.983467102050781	1.0	29.0	1619032873.1439	False		False	7.0	0.0	172.0
6	ses-002	31	images_fmri/floss/floss_05s.jpg	seen	3017	252	5	None	618.0	8917.0	5.0	seen-within-between	3	1	137.1	2.98	True	True	137.08516693115234	140.06510090827942	[['b', 139.12954688072205]]	2.0	seen	False	True	2.029546880722052	2.979933977127075	1.0	30.0	1619032877.6149	False		False	7.0	0.0	161.0
6	ses-002	32	images_fmri/pineapple/pineapple_05s.jpg	seen	5621	469	5	None	1183.0	16833.0	5.0	seen-between	2	1	141.57	2.98	False	False	141.5504229068756	144.5334141254425	[['y', 143.52034282684326]]	-2.0	unseen	True	True	1.9503428268432683	2.9829912185668945	1.0	31.0	1619032882.0802	False		False	7.0	0.0	98.0
6	ses-002	33	images_fmri/butterfly/butterfly_05s.jpg	seen	1193	100	5	None	230.0	3424.0	5.0	seen-between	2	1	146.04	2.98	False	True	146.03563499450684	149.00046610832214	[['y', 147.55225491523743]]	-2.0	unseen	True	True	1.5122549152374347	2.964831113815308	1.0	32.0	1619032886.5654	False		False	7.0	0.0	44.0
6	ses-002	34	images_fmri/lectern/lectern_05s.jpg	seen	4277	357	5	None	909.0	13002.0	5.0	seen-within-between	3	1	150.51	2.98	False	True	150.49820494651794	153.4792730808258	[['b', 152.58640694618225]]	2.0	seen	False	True	2.07640694618226	2.9810681343078613	1.0	33.0	1619032891.0279	False		False	7.0	0.0	102.0
6	ses-002	35	images_fmri/waffle_iron/waffle_iron_05s.jpg	seen	8237	687	5	None	1772.0	24983.0	5.0	seen-between	2	1	154.98	2.98	True	True	154.96454906463623	157.94590401649475	[['b', 156.42253398895264]]	2.0	seen	False	True	1.442533988952647	2.9813549518585205	1.0	34.0	1619032895.4943	False		False	7.0	0.0	167.0
6	ses-002	36	images_fmri/plum/plum_05n.jpg	seen	5741	479	5	None	1204.0	17109.0	5.0	seen-between-within	3	1	159.45	2.98	False	False	159.43027305603027	162.41283893585205	[['x', 160.4923460483551]]	2.0	seen	False	True	1.042346048355114	2.9825658798217773	1.0	35.0	1619032899.96	False		False	0.0	75.97760009765625	17.0
6	ses-002	37	images_fmri/backpack/backpack_05s.jpg	seen	281	24	5	None	50.0	713.0	5.0	seen-within-between	3	1	163.92	2.98	False	True	163.90192008018494	166.88343906402588	[['b', 165.0918550491333]]	2.0	seen	False	True	1.1718550491333133	2.9815189838409424	1.0	36.0	1619032904.4317	False		False	7.0	0.0	145.0
6	ses-002	38	images_fmri/groundhog/groundhog_05n.jpg	unseen	3485	291	5	None	719.0	10303.0	5.0	unseen-within	1	1	168.39	2.98	False	True	168.37862396240234	171.34500312805176	[['x', 170.80552887916565]]	-1.0	unseen	False	False	2.415528879165663	2.966379165649414	1.0	37.0	1619032908.9084	False		False			
6	ses-002	39	images_fmri/bison/bison_05s.jpg	seen	677	57	5	None	135.0	2067.0	5.0	seen-within-between	3	1	172.86	2.98	False	True	172.84456491470337	175.8278830051422	[['b', 173.8531048297882]]	2.0	seen	False	True	0.9931048297881944	2.9833180904388428	1.0	38.0	1619032913.3743	False		False	7.0	0.0	127.0
6	ses-002	40	images_fmri/gauze/gauze_05s.jpg	seen	3209	268	5	None	665.0	9539.0	5.0	seen-between	2	1	177.32999999999996	2.98	True	False	177.31187295913696	180.2944180965424	[['x', 179.6741988658905]]	2.0	seen	False	True	2.344198865890548	2.9825451374053955	1.0	39.0	1619032917.8416	False		False	7.0	0.0	56.0
6	ses-002	41	images_fmri/bamboo/bamboo_05n.jpg	seen	341	29	5	None	63.0	936.0	5.0	seen-within-between	3	1	181.8	2.98	False	False	181.77783298492432	184.7610919475556	[['y', 183.02754282951355]]	-2.0	unseen	True	True	1.2275428295135384	2.9832589626312256	1.0	40.0	1619032922.3076	False		False	7.0	0.0	114.0
6	ses-002	42	images_fmri/marshmallow/marshmallow_05s.jpg	seen	4649	388	5	None	978.0	13938.0	5.0	seen-between	2	1	186.27	2.98	False	False	186.24456691741943	189.227432012558	[['y', 188.51830101013184]]	-2.0	unseen	True	True	2.2483010101318257	2.98286509513855	1.0	41.0	1619032926.7743	False		False	7.0	0.0	131.0
6	ses-002	43	images_fmri/possum/possum_05s.jpg	seen	5861	489	5	None	1229.0	17482.0	5.0	seen-between-within	3	1	190.74	2.98	True	False	190.7273731231689	193.6943941116333	[['x', 191.61720204353333]]	2.0	seen	False	True	0.8772020435333161	2.9670209884643555	1.0	42.0	1619032931.2571	False		False	0.0	165.38960003852844	37.0
6	ses-002	44	images_fmri/soda_fountain/soda_fountain_05s.jpg	seen	6953	580	5	None	1492.0	21117.0	5.0	seen-between-within	3	1	195.21	2.98	True	True	195.19435095787048	198.17724108695984	[['b', 196.25308299064636]]	2.0	seen	False	True	1.0430829906463543	2.9828901290893555	1.0	43.0	1619032935.7241	False		False	0.0	116.2121000289917	26.0
6	ses-002	45	images_fmri/doormat/doormat_05s.jpg	unseen	2537	212	5	None	512.0	7419.0	5.0	unseen-between	1	1	199.68	2.98	False	True	199.6609299182892	202.64367389678955	[['y', 201.47387099266052]]	-2.0	unseen	False	True	1.7938709926605156	2.982743978500366	1.0	44.0	1619032940.1907	False		False			
6	ses-002	46	images_fmri/radish/radish_05s.jpg	seen	6101	509	5	None	1275.0	18161.0	5.0	seen-within-between	3	1	204.15	2.98	False	False	204.1274530887604	207.11028695106504	[['x', 205.26926589012146]]	2.0	seen	False	True	1.1192658901214545	2.9828338623046875	1.0	45.0	1619032944.6572	False		False	7.0	0.0	125.0
6	ses-002	47	images_fmri/sushi/sushi_05s.jpg	seen	7385	616	5	None	1589.0	22440.0	5.0	seen-within	2	1	208.62	2.98	False	True	208.5955851078033	211.58171105384827	[['b', 209.91812300682068]]	2.0	seen	False	True	1.2981230068206742	2.986125946044922	1.0	46.0	1619032949.1253	False		False	0.0	169.8454999923706	38.0
6	ses-002	48	images_fmri/lip_balm/lip_balm_05s.jpg	unseen	4445	371	5	None	935.0	13361.0	5.0	unseen-within	1	1	213.09	2.98	True	False	213.07687091827395	216.04389691352844	[['a', 214.77015686035156]]	-2.0	unseen	False	True	1.680156860351559	2.9670259952545166	1.0	47.0	1619032953.6066	False		False			
6	ses-002	49	images_fmri/popsicle/popsicle_05s.jpg	seen	5837	487	5	None	1226.0	17445.0	5.0	seen-within-between	3	1	217.56	2.98	False	False	217.5432929992676	220.5265860557556	[['x', 218.54293990135193]]	2.0	seen	False	True	0.9829399013519264	2.983293056488037	1.0	48.0	1619032958.073	False		False	7.0	0.0	92.0
6	ses-002	50	images_fmri/iron/iron_05s.jpg	seen	3953	330	5	None	833.0	11908.0	5.0	seen-within-between	3	1	222.03	2.98	False	True	222.01011610031128	224.99321603775024	[['b', 223.766685962677]]	2.0	seen	False	True	1.7366859626770008	2.983099937438965	1.0	49.0	1619032962.5398	False		False	7.0	0.0	102.0
6	ses-002	51	images_fmri/roof_rack/roof_rack_05s.jpg	seen	6377	532	5	None	1330.0	18918.0	5.0	seen-within-between	3	1	226.5	2.98	True	True	226.47681403160087	229.459774017334	[['b', 228.039165019989]]	2.0	seen	False	True	1.5391650199890137	2.982959985733032	1.0	50.0	1619032967.0065	False		False	7.0	0.0	65.0
6	ses-002	52	images_fmri/butterfly/butterfly_05s.jpg	seen	1193	100	5	None	230.0	3424.0	5.0	seen-between-within	3	1	230.97	2.98	True	True	230.95973896980288	233.9267818927765	[['b', 232.1669888496399]]	2.0	seen	False	True	1.1969888496398935	2.967042922973633	1.0	51.0	1619032971.4895	False		False	0.0	84.92410016059875	19.0
6	ses-002	53	images_fmri/fondue/fondue_05s.jpg	unseen	3053	255	5	None	627.0	9049.0	5.0	unseen-within	1	1	235.44	2.98	False	False	235.426255941391	238.40955305099487	[['y', 237.83271884918213]]	-2.0	unseen	False	True	2.392718849182131	2.983297109603882	1.0	52.0	1619032975.956	False		False			
6	ses-002	54	images_fmri/hamster/hamster_05s.jpg	seen	3617	302	5	None	744.0	10659.0	5.0	seen-within	2	1	239.91	2.98	True	True	239.8931920528412	242.87603092193604	[['b', 240.77725100517273]]	2.0	seen	False	True	0.8672510051727329	2.9828388690948486	1.0	53.0	1619032980.4229	False		False	0.0	178.79259991645813	40.0
6	ses-002	55	images_fmri/extinguisher/extinguisher_05s.jpg	seen	2801	234	5	None	564.0	8163.0	5.0	seen-between-within	3	1	244.38	2.98	True	True	244.3600549697876	247.34265208244324	[['b', 245.311527967453]]	2.0	seen	False	True	0.9315279674530076	2.98259711265564	1.0	54.0	1619032984.8898	False		False	0.0	210.0871000289917	47.0
6	ses-002	56	images_fmri/crown/crown_05n.jpg	unseen	2237	187	5	None	449.0	6499.0	5.0	unseen-between	1	1	248.85	2.98	False	False	248.82626008987427	251.80949711799624	[['y', 251.89242792129517]]	-2.0	unseen	False	True	3.042427921295172	2.983237028121948	1.0	55.0	1619032989.356	False		False			
6	ses-002	57	images_fmri/cardigan/cardigan_05s.jpg	seen	1421	119	5	None	274.0	4022.0	5.0	seen-within-between	3	1	253.32	2.98	False	True	253.30920100212097	256.29338097572327	[['b', 254.88256192207336]]	2.0	seen	False	True	1.562561922073371	2.984179973602295	1.0	56.0	1619032993.8389	False		False	7.0	0.0	158.0
6	ses-002	58	images_fmri/guillotine/guillotine_05s.jpg	unseen	3521	294	5	None	722.0	10358.0	5.0	unseen-between	1	1	257.79	2.98	True	False	257.77880001068115	260.7610490322113	[['x', 259.8768198490143]]	2.0	seen	True	True	2.0868198490142618	2.982249021530152	1.0	57.0	1619032998.3085	False		False			
6	ses-002	59	images_fmri/cage/cage_05s.jpg	seen	1229	103	5	None	237.0	3522.0	5.0	seen-within	2	1	262.26	2.98	True	True	262.24495911598206	265.2278609275818	[['b', 263.26756381988525]]	2.0	seen	False	True	1.007563819885263	2.9829018115997314	1.0	58.0	1619033002.7747	False		False	0.0	250.32729983329773	56.0
6	ses-002	60	images_fmri/lip_balm/lip_balm_05s.jpg	seen	4445	371	5	None	935.0	13361.0	5.0	seen-within	2	1	266.73	2.98	True	False	266.71180391311646	269.6929829120636	[['x', 268.20436787605286]]	2.0	seen	False	True	1.4743678760528385	2.981178998947144	1.0	59.0	1619033007.2415	False		False	0.0	53.634899854660034	12.0
6	ses-002	1	images_fmri/helicopter/helicopter_05s.jpg	seen	3737	312	5	None	776.0	11103.0	5.0	seen-between	2	2	3.0	2.98	True	True	2.983272790908813	5.965461015701294	[['b', 4.686025857925415]]	2.0	seen	False	True	1.686025857925415	2.9821882247924805	1.0	0.0	1619033116.7044	False		False	7.0	0.0	96.0
6	ses-002	2	images_fmri/ladder/ladder_05s.jpg	unseen	4193	350	5	None	887.0	12698.0	5.0	unseen-within	1	2	7.47	2.98	False	False	7.467058897018433	10.43254780769348	[['y', 9.44001293182373]]	-2.0	unseen	False	True	1.9700129318237307	2.965488910675049	1.0	1.0	1619033121.1882	False		False			
6	ses-002	3	images_fmri/touchpad/touchpad_05s.jpg	seen	7877	657	5	None	1692.0	23874.0	5.0	seen-between	2	2	11.94	2.98	False	True	11.932955980300903	14.915227890014648	[['b', 14.185724973678589]]	2.0	seen	False	True	2.2457249736785894	2.982271909713745	1.0	2.0	1619033125.6541	False		False	7.0	0.0	114.0
6	ses-002	4	images_fmri/grapefruit/grapefruit_05s.jpg	seen	3401	284	5	None	704.0	10092.0	5.0	seen-between	2	2	16.41	2.98	False	False	16.399128913879395	19.38174796104431	[['x', 18.194329023361206]]	2.0	seen	False	True	1.784329023361206	2.982619047164917	1.0	3.0	1619033130.1203	False		False	7.0	0.0	175.0
6	ses-002	5	images_fmri/koala/koala_05s.jpg	unseen	4181	349	5	None	885.0	12670.0	5.0	unseen-within	1	2	20.88	2.98	True	True	20.865957021713257	23.848356008529663	[['b', 22.121739864349365]]	2.0	seen	True	True	1.2417398643493662	2.9823989868164062	1.0	4.0	1619033134.5871	False		False			
6	ses-002	6	images_fmri/sink/sink_05s.jpg	unseen	6797	567	5	None	1448.0	20533.0	5.0	unseen-within	1	2	25.35	2.98	True	True	25.33344578742981	28.319766998291016	[['a', 27.29056191444397]]	-2.0	unseen	False	True	1.9405619144439683	2.986321210861206	1.0	5.0	1619033139.0546	False		False			
6	ses-002	7	images_fmri/chest1/chest1_05s.jpg	seen	1649	138	5	None	320.0	4645.0	5.0	seen-between	2	2	29.82	2.98	True	True	29.8139009475708	32.780860900878906	[['a', 31.624485969543457]]	-2.0	unseen	True	True	1.8044859695434567	2.966959953308105	1.0	6.0	1619033143.5351	False		False	7.0	0.0	120.0
6	ses-002	8	images_fmri/goalpost/goalpost_05s.jpg	seen	3293	275	5	None	684.0	9793.0	5.0	seen-within	2	2	34.29	2.98	False	False	34.28042984008789	37.26362085342407	[['x', 35.25885605812073]]	2.0	seen	False	True	0.9688560581207284	2.9831910133361816	1.0	7.0	1619033148.0016	False		False	0.0	337.4390001296997	52.0
6	ses-002	9	images_fmri/mouse1/mouse1_05s.jpg	unseen	4937	412	5	None	1027.0	14636.0	5.0	unseen-between	1	2	38.76	2.98	False	True	38.74738383293152	41.730309009552	[['y', 40.26274585723877]]	-2.0	unseen	False	True	1.5027458572387715	2.9829251766204834	1.0	8.0	1619033152.4686	False		False			
6	ses-002	10	images_fmri/bassinet/bassinet_05s.jpg	seen	437	37	5	None	86.0	1271.0	5.0	seen-between	2	2	43.23	2.98	False	True	43.21413493156433	46.19682598114014	[['y', 45.78991484642029]]	-2.0	unseen	True	True	2.559914846420291	2.9826910495758057	1.0	9.0	1619033156.9353	False		False	7.0	0.0	95.0
6	ses-002	11	images_fmri/oatmeal/oatmeal_05s.jpg	seen	5117	427	5	None	1070.0	15212.0	5.0	seen-within	2	2	47.7	2.98	True	True	47.680540800094604	50.6637008190155	[['b', 48.857096910476685]]	2.0	seen	False	True	1.1570969104766815	2.9831600189208984	1.0	10.0	1619033161.4017	False		False	0.0	301.6561999320984	44.0
6	ses-002	12	images_fmri/sink/sink_05s.jpg	seen	6797	567	5	None	1448.0	20533.0	5.0	seen-within	2	2	52.17	2.98	False	True	52.16371393203735	55.14659595489502	[['b', 53.368468046188354]]	2.0	seen	False	True	1.1984680461883528	2.982882022857666	1.0	11.0	1619033165.8849	False		False	0.0	26.830300092697144	6.0
6	ses-002	13	images_fmri/syrup/syrup_05s.jpg	unseen	7445	621	5	None	1606.0	22688.0	5.0	unseen-between	1	2	56.64	2.98	True	False	56.63004493713379	59.61318778991699	[['y', 59.397860050201416]]	1.0	seen	True	False	2.7578600502014154	2.983142852783203	1.0	12.0	1619033170.3512	False		False			
6	ses-002	14	images_fmri/ladder/ladder_05s.jpg	seen	4193	350	5	None	887.0	12698.0	5.0	seen-within	2	2	61.11	2.98	False	False	61.09695601463318	64.07972979545593	[['x', 61.98529601097107]]	2.0	seen	False	True	0.8752960109710699	2.982773780822754	1.0	13.0	1619033174.8181	False		False	0.0	53.629899978637695	12.0
6	ses-002	15	images_fmri/thimble/thimble_05n.jpg	unseen	7673	640	5	None	1650.0	23302.0	5.0	unseen-within	1	2	65.58	2.98	False	True	65.56342387199402	68.54644179344177	[['y', 68.25539684295654]]	-2.0	unseen	False	True	2.6753968429565447	2.983017921447754	1.0	14.0	1619033179.2846	False		False			
6	ses-002	16	images_fmri/pinwheel/pinwheel_05s.jpg	seen	5645	471	5	None	1186.0	16870.0	5.0	seen-between	2	2	70.05	2.98	True	True	70.02979683876038	73.0153419971466	[['a', 71.67043805122375]]	-2.0	unseen	True	True	1.6204380512237575	2.9855451583862305	1.0	15.0	1619033183.751	False		False	7.0	0.0	113.0
6	ses-002	17	images_fmri/pineapple/pineapple_05s.jpg	seen	5621	469	5	None	1183.0	16833.0	5.0	seen-between-within	3	2	74.52	2.98	False	True	74.515389919281	77.48162984848022	[['b', 75.92447590827942]]	2.0	seen	False	True	1.404475908279423	2.9662399291992188	1.0	16.0	1619033188.2366	False		False	0.0	306.15639996528625	45.0
6	ses-002	18	images_fmri/marshmallow/marshmallow_05s.jpg	seen	4649	388	5	None	978.0	13938.0	5.0	seen-between-within	3	2	78.99	2.98	True	False	78.97967886924744	81.96256995201111	[['x', 79.95319700241089]]	2.0	seen	False	True	0.9631970024108938	2.982891082763672	1.0	17.0	1619033192.7009	False		False	0.0	265.92659997940063	36.0
6	ses-002	19	images_fmri/kazoo/kazoo_05s.jpg	unseen	4085	341	5	None	865.0	12365.0	5.0	unseen-between	1	2	83.46	2.98	True	True	83.44626593589783	86.42904496192932	[['a', 85.10147190093994]]	-2.0	unseen	False	True	1.6414719009399477	2.982779026031494	1.0	18.0	1619033197.1674	False		False			
6	ses-002	20	images_fmri/coin/coin_05s.jpg	unseen	1913	160	5	None	386.0	5555.0	5.0	unseen-within	1	2	87.92999999999998	2.98	False	True	87.91304683685303	90.8962550163269	[['b', 90.2222409248352]]	2.0	seen	True	True	2.2922409248352267	2.983208179473877	1.0	19.0	1619033201.6342	False		False			
6	ses-002	21	images_fmri/toaster/toaster_05s.jpg	seen	7757	647	5	None	1667.0	23530.0	5.0	seen-within-between	3	2	92.4	2.98	True	True	92.37947392463684	95.36278486251832	[['a', 94.85239386558533]]	-2.0	unseen	True	True	2.452393865585321	2.9833109378814697	1.0	20.0	1619033206.1006	False		False	7.0	0.0	98.0
6	ses-002	22	images_fmri/brush/brush_05s.jpg	seen	1049	88	5	None	206.0	3108.0	5.0	seen-within-between	3	2	96.87	2.98	False	True	96.86217594146729	99.82910990715028	[['b', 98.15159201622009]]	2.0	seen	False	True	1.2815920162200882	2.9669339656829834	1.0	21.0	1619033210.5833	False		False	7.0	0.0	247.0
6	ses-002	23	images_fmri/bird/bird_05s.jpg	unseen	641	54	5	None	129.0	1975.0	5.0	unseen-within	1	2	101.34	2.98	True	False	101.32928085327148	104.3119888305664	[['a', 103.07410788536072]]	-2.0	unseen	False	True	1.7341078853607144	2.982707977294922	1.0	22.0	1619033215.0505	False		False			
6	ses-002	24	images_fmri/tuxedo/tuxedo_05s.jpg	seen	8069	673	5	None	1739.0	24510.0	5.0	seen-between	2	2	105.81	2.98	False	False	105.79526495933531	108.7785120010376	[['y', 107.4171199798584]]	-2.0	unseen	True	True	1.6071199798583962	2.9832470417022705	1.0	23.0	1619033219.5164	False		False	7.0	0.0	153.0
6	ses-002	25	images_fmri/cockroach/cockroach_05s.jpg	unseen	1865	156	5	None	374.0	5393.0	5.0	unseen-between	1	2	110.28	2.98	True	False	110.26227283477785	113.24511098861694	[['x', 111.93212604522705]]	2.0	seen	True	True	1.6521260452270496	2.982838153839112	1.0	24.0	1619033223.9834	False		False			
6	ses-002	26	images_fmri/basket/basket_05s.jpg	seen	425	36	5	None	83.0	1234.0	5.0	seen-within-between	3	2	114.75	2.98	True	True	114.74518585205078	117.71206998825072	[['x', 117.83814287185669]]	-1.0	unseen	True	False	3.088142871856689	2.966884136199951	1.0	25.0	1619033228.4664	False		False	7.0	0.0	241.0
6	ses-002	27	images_fmri/oyster/oyster_05s.jpg	unseen	5213	435	5	None	1093.0	15564.0	5.0	unseen-within	1	2	119.22	2.98	False	False	119.21162581443788	122.19644498825072	[['y', 121.55687499046326]]	-2.0	unseen	False	True	2.336874990463258	2.984819173812866	1.0	26.0	1619033232.9328	False		False			
6	ses-002	28	images_fmri/paintbrush/paintbrush_05s.jpg	seen	5261	439	5	None	1098.0	15632.0	5.0	seen-within-between	3	2	123.69	2.98	False	True	123.6789689064026	126.66341781616212	[['b', 125.53827095031738]]	2.0	seen	False	True	1.848270950317385	2.984448909759521	1.0	27.0	1619033237.4001	False		False	7.0	0.0	222.0
6	ses-002	29	images_fmri/cashew/cashew_05s.jpg	seen	1457	122	5	None	282.0	4127.0	5.0	seen-within-between	3	2	128.16	2.98	True	False	128.15215396881104	131.13049578666687	[['y', 130.88238096237183]]	1.0	seen	False	False	2.7223809623718296	2.978341817855835	1.0	28.0	1619033241.8733	False		False	7.0	0.0	147.0
6	ses-002	30	images_fmri/bassinet/bassinet_05s.jpg	seen	437	37	5	None	86.0	1271.0	5.0	seen-between-within	3	2	132.63	2.98	False	False	132.61710500717163	135.59648084640503	[['x', 133.5229148864746]]	2.0	seen	False	True	0.8929148864746139	2.9793758392333984	1.0	29.0	1619033246.3383	False		False	0.0	89.40299987792969	20.0
6	ses-002	31	images_fmri/cucumber/cucumber_05s.jpg	unseen	2273	190	5	None	458.0	6626.0	5.0	unseen-within	1	2	137.1	2.98	False	False	137.09604787826538	140.06241583824158	[['x', 139.38088083267212]]	2.0	seen	True	True	2.280880832672125	2.9663679599761963	1.0	30.0	1619033250.8172	False		False			
6	ses-002	32	images_fmri/t-shirt/t-shirt_05s.jpg	seen	7457	622	5	None	1607.0	22700.0	5.0	seen-within-between	3	2	141.57	2.98	False	True	141.56264090538025	144.54528498649597	[['b', 142.85542392730713]]	2.0	seen	False	True	1.2854239273071355	2.9826440811157227	1.0	31.0	1619033255.2838	False		False	7.0	0.0	93.0
6	ses-002	33	images_fmri/lock/lock_05s.jpg	seen	4493	375	5	None	941.0	13434.0	5.0	seen-between-within	3	2	146.04	2.98	False	False	146.03043699264526	149.01226687431335	[['x', 147.2305428981781]]	2.0	seen	False	True	1.1905428981781083	2.981829881668091	1.0	32.0	1619033259.7516	False		False	0.0	422.3689000606537	71.0
6	ses-002	34	images_fmri/jam/jam_05s.jpg	seen	3977	332	5	None	840.0	12009.0	5.0	seen-within-between	3	2	150.51	2.98	False	False	150.4961919784546	153.47819089889526	[['x', 152.18265390396118]]	2.0	seen	False	True	1.6726539039611907	2.981998920440674	1.0	33.0	1619033264.2174	False		False	7.0	0.0	227.0
6	ses-002	35	images_fmri/manatee/manatee_05s.jpg	unseen	4577	382	5	None	965.0	13754.0	5.0	unseen-within	1	2	154.98	2.98	True	True	154.96271300315857	157.9454469680786	[['x', 157.76202487945557]]	-1.0	unseen	False	False	2.7820248794555766	2.982733964920044	1.0	34.0	1619033268.6839	False		False			
6	ses-002	36	images_fmri/washboard/washboard_05s.jpg	unseen	8345	696	5	None	1783.0	25135.0	5.0	unseen-within	1	2	159.45	2.98	True	False	159.4448959827423	162.41338992118835	[['a', 162.02314805984497]]	-2.0	unseen	False	True	2.573148059844982	2.968493938446045	1.0	35.0	1619033273.1661	False		False			
6	ses-002	37	images_fmri/mousetrap/mousetrap_05s.jpg	seen	4949	413	5	None	1030.0	14683.0	5.0	seen-between	2	2	163.92	2.98	False	False	163.91165590286255	166.89477586746216	[['y', 166.68442487716675]]	-2.0	unseen	True	True	2.764424877166761	2.9831199645996094	1.0	36.0	1619033277.6328	False		False	7.0	0.0	191.0
6	ses-002	38	images_fmri/pear/pear_05s.jpg	unseen	5429	453	5	None	1134.0	16145.0	5.0	unseen-between	1	2	168.39	2.98	False	True	168.3795018196106	171.36344194412231	[['y', 170.49948692321777]]	-2.0	unseen	False	True	2.109486923217787	2.9839401245117188	1.0	37.0	1619033282.1007	False		False			
6	ses-002	39	images_fmri/praying_mantis/praying_mantis_05s.jpg	seen	5933	495	5	None	1239.0	17619.0	5.0	seen-within-between	3	2	172.86	2.98	True	False	172.84547591209412	175.82931900024414	[['x', 174.6579999923706]]	2.0	seen	False	True	1.7979999923705918	2.9838430881500244	1.0	38.0	1619033286.5666	False		False	7.0	0.0	161.0
6	ses-002	40	images_fmri/toilet/toilet_05s.jpg	unseen	7769	648	5	None	1671.0	23584.0	5.0	unseen-between	1	2	177.32999999999996	2.98	True	True	177.3167200088501	180.29957699775696	[['x', 180.09903383255005]]	-1.0	unseen	False	False	2.769033832550093	2.9828569889068604	1.0	39.0	1619033291.0379	False		False			
6	ses-002	41	images_fmri/gearshift/gearshift_05s.jpg	seen	3221	269	5	None	669.0	9589.0	5.0	seen-within-between	3	2	181.8	2.98	True	True	181.795471906662	184.7787299156189	[['a', 183.70935487747192]]	-2.0	unseen	True	True	1.9093548774719125	2.983258008956909	1.0	40.0	1619033295.5166	False		False	7.0	0.0	253.0
6	ses-002	42	images_fmri/mousetrap/mousetrap_05s.jpg	seen	4949	413	5	None	1030.0	14683.0	5.0	seen-between-within	3	2	186.27	2.98	False	False	186.26187086105347	189.2461059093476	[['x', 187.53166699409485]]	2.0	seen	False	True	1.2616669940948384	2.9842350482940674	1.0	41.0	1619033299.983	False		False	0.0	22.350199937820435	5.0
6	ses-002	43	images_fmri/truck/truck_05s.jpg	unseen	8021	669	5	None	1721.0	24264.0	5.0	unseen-within	1	2	190.74	2.98	False	False	190.7285268306732	193.7107648849488	[['y', 192.32756686210632]]	-2.0	unseen	False	True	1.587566862106314	2.9822380542755127	1.0	42.0	1619033304.4497	False		False			
6	ses-002	44	images_fmri/dishrag/dishrag_05s.jpg	seen	2429	203	5	None	491.0	7105.0	5.0	seen-between-within	3	2	195.21	2.98	True	True	195.1952857971192	198.17836380004883	[['b', 196.33329796791077]]	2.0	seen	False	True	1.1232979679107586	2.9830780029296875	1.0	43.0	1619033308.9165	False		False	0.0	516.2365000247955	92.0
6	ses-002	45	images_fmri/bracelet2/bracelet2_05s.jpg	unseen	953	80	5	None	189.0	2864.0	5.0	unseen-within	1	2	199.68	2.98	True	True	199.6622200012207	202.64488887786865	[['a', 201.86867785453796]]	-2.0	unseen	False	True	2.188677854537957	2.982668876647949	1.0	44.0	1619033313.3834	False		False			
6	ses-002	46	images_fmri/kangaroo/kangaroo_05s.jpg	unseen	4073	340	5	None	863.0	12337.0	5.0	unseen-between	1	2	204.15	2.98	False	True	204.14433693885803	207.1119999885559	[['x', 206.9102499485016]]	-1.0	unseen	False	False	2.760249948501581	2.967663049697876	1.0	45.0	1619033317.8655	False		False			
6	ses-002	47	images_fmri/altar/altar_05s.jpg	seen	77	7	5	None	17.0	236.0	5.0	seen-within-between	3	2	208.62	2.98	True	False	208.61076188087463	211.5942678451538	[['x', 211.34841084480286]]	2.0	seen	False	True	2.728410844802852	2.983505964279175	1.0	46.0	1619033322.3319	False		False	7.0	0.0	178.0
6	ses-002	48	images_fmri/bracelet2/bracelet2_05s.jpg	seen	953	80	5	None	189.0	2864.0	5.0	seen-within	2	2	213.09	2.98	True	True	213.07670497894287	216.06080389022827	[['b', 214.23870301246643]]	2.0	seen	False	True	1.1487030124664273	2.9840989112854004	1.0	47.0	1619033326.7979	False		False	0.0	13.414499998092651	3.0
6	ses-002	49	images_fmri/tie/tie_05s.jpg	seen	7709	643	5	None	1659.0	23418.0	5.0	seen-between	2	2	217.56	2.98	True	False	217.54566478729248	220.5305678844452	[['a', 219.0735878944397]]	-2.0	unseen	True	True	1.513587894439695	2.98490309715271	1.0	48.0	1619033331.2668	False		False	7.0	0.0	157.0
6	ses-002	50	images_fmri/violin/violin_05s.jpg	seen	8225	686	5	None	1765.0	24876.0	5.0	seen-between	2	2	222.03	2.98	True	False	222.0153658390045	224.99416399002075	[['x', 223.6166229248047]]	2.0	seen	False	True	1.5866229248046864	2.978798151016236	1.0	49.0	1619033335.7365	False		False	7.0	0.0	220.0
6	ses-002	51	images_fmri/gauze/gauze_05s.jpg	seen	3209	268	5	None	665.0	9539.0	5.0	seen-between-within	3	2	226.5	2.98	True	False	226.49778580665588	229.4621458053589	[['x', 227.45839500427246]]	2.0	seen	False	True	0.9583950042724608	2.964359998703003	1.0	50.0	1619033340.219	False		False	0.0	422.3774001598358	71.0
6	ses-002	52	images_fmri/bagel/bagel_05s.jpg	seen	305	26	5	None	56.0	816.0	5.0	seen-between	2	2	230.97	2.98	False	False	230.96473789215088	233.94514393806452	[['x', 233.83609890937805]]	2.0	seen	False	True	2.866098909378053	2.9804060459136963	1.0	51.0	1619033344.6859	False		False	7.0	0.0	161.0
6	ses-002	53	images_fmri/manatee/manatee_05s.jpg	seen	4577	382	5	None	965.0	13754.0	5.0	seen-within	2	2	235.44	2.98	False	True	235.4272308349609	238.4113268852234	[['b', 236.65707802772522]]	2.0	seen	False	True	1.217078027725222	2.984096050262451	1.0	52.0	1619033349.1484	False		False	0.0	80.46449995040894	18.0
6	ses-002	54	images_fmri/peach/peach_05s.jpg	seen	5405	451	5	None	1130.0	16092.0	5.0	seen-within-between	3	2	239.91	2.98	True	False	239.8939409255981	242.8760499954224	[['b', 242.3978729248047]]	-1.0	unseen	True	False	2.487872924804691	2.9821090698242188	1.0	53.0	1619033353.6151	False		False	7.0	0.0	243.0
6	ses-002	55	images_fmri/ruler/ruler_05s.jpg	seen	6401	534	5	None	1342.0	19086.0	5.0	seen-within-between	3	2	244.38	2.98	False	True	244.37622380256653	247.3442018032074	[['b', 245.83477091789246]]	2.0	seen	False	True	1.4547709178924606	2.967978000640869	1.0	54.0	1619033358.0974	False		False	7.0	0.0	218.0
6	ses-002	56	images_fmri/balloon/balloon_05s.jpg	unseen	329	28	5	None	61.0	900.0	5.0	unseen-between	1	2	248.85	2.98	True	False	248.8447449207306	251.82593393325809	[['a', 250.3503270149231]]	-2.0	unseen	False	True	1.5003270149231014	2.981189012527466	1.0	55.0	1619033362.5659	False		False			
6	ses-002	57	images_fmri/coin/coin_05s.jpg	seen	1913	160	5	None	386.0	5555.0	5.0	seen-within	2	2	253.32	2.98	False	False	253.3096528053284	256.29234981536865	[['x', 254.28727793693542]]	2.0	seen	False	True	0.9672779369354316	2.982697010040283	1.0	56.0	1619033367.0308	False		False	0.0	165.39660000801086	37.0
6	ses-002	58	images_fmri/mailbox/mailbox_05s.jpg	seen	4553	380	5	None	961.0	13690.0	5.0	seen-between	2	2	257.79	2.98	True	True	257.77681589126587	260.75966000556946	[['y', 260.44462990760803]]	1.0	seen	False	False	2.654629907608012	2.982844114303589	1.0	57.0	1619033371.498	False		False	7.0	0.0	202.0
6	ses-002	59	images_fmri/bagel/bagel_05s.jpg	seen	305	26	5	None	56.0	816.0	5.0	seen-between-within	3	2	262.26	2.98	False	False	262.2589650154114	265.2274010181427	[['x', 263.19394397735596]]	2.0	seen	False	True	0.933943977355966	2.9684360027313232	1.0	58.0	1619033375.9801	False		False	0.0	31.29419994354248	7.0
6	ses-002	60	images_fmri/fondue/fondue_05s.jpg	seen	3053	255	5	None	627.0	9049.0	5.0	seen-within	2	2	266.73	2.98	True	False	266.7302157878876	269.69585394859314	[['x', 267.66860604286194]]	2.0	seen	False	True	0.9386060428619204	2.9656381607055664	1.0	59.0	1619033380.4514	False		False	0.0	404.4953999519348	67.0
6	ses-002	1	images_fmri/snorkel/snorkel_05s.jpg	seen	6905	576	5	None	1479.0	20956.0	5.0	seen-between	2	3	3.0	2.98	False	False	2.984205961227417	5.950985908508301	[['x', 4.7929301261901855]]	2.0	seen	False	True	1.7929301261901855	2.966779947280884	1.0	0.0	1619033495.9279	False		False	7.0	0.0	230.0
6	ses-002	2	images_fmri/hotdog/hotdog_05s.jpg	seen	3845	321	5	None	806.0	11529.0	5.0	seen-within-between	3	3	7.47	2.98	True	True	7.451685905456543	10.433741092681885	[['b', 9.296183109283447]]	2.0	seen	False	True	1.8261831092834475	2.982055187225342	1.0	1.0	1619033500.3954	False		False	7.0	0.0	262.0
6	ses-002	3	images_fmri/undershirt/undershirt_05s.jpg	seen	8129	678	5	None	1745.0	24597.0	5.0	seen-between	2	3	11.94	2.98	True	True	11.917460918426514	14.89968991279602	[['a', 14.059794187545776]]	-2.0	unseen	True	True	2.119794187545777	2.982228994369507	1.0	2.0	1619033504.8612	False		False	7.0	0.0	187.0
6	ses-002	4	images_fmri/lamp/lamp_05s.jpg	unseen	4217	352	5	None	892.0	12773.0	5.0	unseen-within	1	3	16.41	2.98	False	True	16.38294792175293	19.366859912872314	[['a', 18.81708002090454]]	1.0	seen	True	False	2.407080020904541	2.9839119911193848	1.0	3.0	1619033509.3266	False		False			
6	ses-002	5	images_fmri/football_helmet/football_helmet_05s.jpg	unseen	3065	256	5	None	631.0	9104.0	5.0	unseen-between	1	3	20.88	2.98	True	True	20.866641998291016	23.83385992050171	[['y', 24.716060161590576]]	1.0	seen	True	False	3.836060161590577	2.9672179222106934	1.0	4.0	1619033513.8103	False		False			
6	ses-002	6	images_fmri/clay/clay_05s.jpg	unseen	1793	150	5	None	353.0	5105.0	5.0	unseen-within	1	3	25.35	2.98	True	True	25.33179807662964	28.3151171207428	[['a', 27.28376317024231]]	-2.0	unseen	False	True	1.933763170242308	2.983319044113159	1.0	5.0	1619033518.2755	False		False			
6	ses-002	7	images_fmri/bird/bird_05s.jpg	seen	641	54	5	None	129.0	1975.0	5.0	seen-within	2	3	29.82	2.98	True	False	29.79830813407898	32.78162097930908	[['x', 30.88114309310913]]	2.0	seen	False	True	1.0611430931091306	2.9833128452301025	1.0	6.0	1619033522.742	False		False	0.0	307.69150018692017	44.0
6	ses-002	8	images_fmri/rhinoceros/rhinoceros_05s.jpg	unseen	6245	521	5	None	1307.0	18610.0	5.0	unseen-within	1	3	34.29	2.98	True	True	34.26526212692261	37.24816393852234	[['b', 36.160979986190796]]	2.0	seen	True	True	1.8709799861907968	2.9829018115997314	1.0	7.0	1619033527.209	False		False			
6	ses-002	9	images_fmri/mandolin/mandolin_05s.jpg	seen	4589	383	5	None	966.0	13766.0	5.0	seen-within-between	3	3	38.76	2.98	False	True	38.73142695426941	41.71475601196289	[['b', 40.016855001449585]]	2.0	seen	False	True	1.256855001449587	2.983329057693481	1.0	8.0	1619033531.6751	False		False	7.0	0.0	206.0
6	ses-002	10	images_fmri/phone/phone_05s.jpg	unseen	5525	461	5	None	1162.0	16536.0	5.0	unseen-between	1	3	43.23	2.98	False	True	43.21467208862305	46.18128705024719	[['y', 45.5934681892395]]	-2.0	unseen	False	True	2.363468189239505	2.966614961624145	1.0	9.0	1619033536.1584	False		False			
6	ses-002	11	images_fmri/snorkel/snorkel_05s.jpg	seen	6905	576	5	None	1479.0	20956.0	5.0	seen-between-within	3	3	47.7	2.98	True	False	47.68125295639038	50.664506912231445	[['x', 48.67979717254639]]	2.0	seen	False	True	0.979797172546384	2.9832539558410645	1.0	10.0	1619033540.6249	False		False	0.0	44.69700002670288	10.0
6	ses-002	12	images_fmri/hip/hip_05s.jpg	unseen	3773	315	5	None	781.0	11176.0	5.0	unseen-within	1	3	52.17	2.98	True	True	52.14857792854309	55.13101196289063	[['a', 53.61142110824585]]	-2.0	unseen	False	True	1.441421108245848	2.982434034347534	1.0	11.0	1619033545.0923	False		False			
6	ses-002	13	images_fmri/corn/corn_05s.jpg	unseen	2057	172	5	None	413.0	5931.0	5.0	unseen-within	1	3	56.64	2.98	False	True	56.61458396911621	59.59754395484924	[['y', 58.587467193603516]]	-2.0	unseen	False	True	1.947467193603515	2.982959985733032	1.0	12.0	1619033549.5583	False		False			
6	ses-002	14	images_fmri/washboard/washboard_05s.jpg	seen	8345	696	5	None	1783.0	25135.0	5.0	seen-within	2	3	61.11	2.98	False	False	61.08077812194824	64.06453514099121	[['x', 62.07725501060486]]	2.0	seen	False	True	0.967255010604859	2.9837570190429688	1.0	13.0	1619033554.0245	False		False	0.0	280.8583998680115	38.0
6	ses-002	15	images_fmri/umbrella/umbrella_05s.jpg	seen	8117	677	5	None	1744.0	24581.0	5.0	seen-between	2	3	65.58	2.98	False	False	65.56413006782532	68.53061199188232	[['b', 68.16268515586853]]	-1.0	unseen	True	False	2.582685155868532	2.966481924057007	1.0	14.0	1619033558.5078	False		False	7.0	0.0	173.0
6	ses-002	16	images_fmri/tuxedo/tuxedo_05s.jpg	seen	8069	673	5	None	1739.0	24510.0	5.0	seen-between-within	3	3	70.05	2.98	True	False	70.03067803382874	73.01492309570312	[['x', 70.92429900169373]]	2.0	seen	False	True	0.8742990016937284	2.9842450618743896	1.0	15.0	1619033562.9744	False		False	0.0	343.4579999446869	52.0
6	ses-002	17	images_fmri/eggplant/eggplant_05n.jpg	unseen	2741	229	5	None	551.0	7995.0	5.0	unseen-between	1	3	74.52	2.98	True	True	74.5036211013794	77.4836950302124	[['a', 76.98179602622986]]	-2.0	unseen	False	True	2.4617960262298624	2.980073928833008	1.0	16.0	1619033567.4473	False		False			
6	ses-002	18	images_fmri/chest1/chest1_05s.jpg	seen	1649	138	5	None	320.0	4645.0	5.0	seen-between-within	3	3	78.99	2.98	True	True	78.9655511379242	81.94964814186096	[['b', 80.5938720703125]]	2.0	seen	False	True	1.6038720703125051	2.984097003936768	1.0	17.0	1619033571.9092	False		False	0.0	428.3740999698639	71.0
6	ses-002	19	images_fmri/helicopter/helicopter_05s.jpg	seen	3737	312	5	None	776.0	11103.0	5.0	seen-between-within	3	3	83.46	2.98	True	True	83.43281292915344	86.41592001914978	[['b', 84.40517711639404]]	2.0	seen	False	True	0.9451771163940492	2.983107089996338	1.0	18.0	1619033576.3765	False		False	0.0	459.6720998287201	78.0
6	ses-002	20	images_fmri/brownie/brownie_05s.jpg	seen	1037	87	5	None	205.0	3090.0	5.0	seen-between	2	3	87.92999999999998	2.98	True	False	87.91745114326477	90.88151693344116	[['x', 89.01273202896118]]	2.0	seen	False	True	1.0827320289612032	2.964065790176392	1.0	19.0	1619033580.8611	False		False	7.0	0.0	278.0
6	ses-002	21	images_fmri/brownie/brownie_05s.jpg	seen	1037	87	5	None	205.0	3090.0	5.0	seen-between-within	3	3	92.4	2.98	True	False	92.3825569152832	95.36432313919067	[['x', 93.283518075943]]	2.0	seen	False	True	0.8835180759429875	2.9817662239074707	1.0	20.0	1619033585.3263	False		False	0.0	4.465199947357178	1.0
6	ses-002	22	images_fmri/anteater/anteater_05s.jpg	unseen	137	12	5	None	26.0	360.0	5.0	unseen-within	1	3	96.87	2.98	False	True	96.84863805770874	99.83132100105286	[['y', 99.68404912948608]]	-2.0	unseen	False	True	2.8140491294860794	2.982682943344116	1.0	21.0	1619033589.7923	False		False			
6	ses-002	23	images_fmri/waffle_iron/waffle_iron_05s.jpg	seen	8237	687	5	None	1772.0	24983.0	5.0	seen-between-within	3	3	101.34	2.98	True	True	101.31397104263306	104.29740309715272	[['b', 102.41698217391968]]	2.0	seen	False	True	1.0769821739196743	2.9834320545196533	1.0	22.0	1619033594.2577	False		False	0.0	698.7634000778198	108.0
6	ses-002	24	images_fmri/guacamole/guacamole_05s.jpg	seen	3497	292	5	None	720.0	10315.0	5.0	seen-within	2	3	105.81	2.98	False	True	105.7817690372467	108.76382994651794	[['b', 107.5768620967865]]	2.0	seen	False	True	1.7668620967864967	2.98206090927124	1.0	23.0	1619033598.7255	False		False	0.0	814.9793000221252	134.0
6	ses-002	25	images_fmri/koala/koala_05s.jpg	seen	4181	349	5	None	885.0	12670.0	5.0	seen-within	2	3	110.28	2.98	False	False	110.26558494567873	113.23099398612976	[['x', 111.34035205841064]]	2.0	seen	False	True	1.0603520584106434	2.96540904045105	1.0	24.0	1619033603.2093	False		False	0.0	468.62220001220703	80.0
6	ses-002	26	images_fmri/garbage/garbage_05s.jpg	seen	3161	264	5	None	656.0	9423.0	5.0	seen-within-between	3	3	114.75	2.98	True	False	114.73241305351256	117.71362590789796	[['a', 116.88184404373169]]	-2.0	unseen	True	True	2.131844043731689	2.981212854385376	1.0	25.0	1619033607.6761	False		False	7.0	0.0	159.0
6	ses-002	27	images_fmri/papaya/papaya_05s.jpg	seen	5321	444	5	None	1112.0	15821.0	5.0	seen-between	2	3	119.22	2.98	True	False	119.1970009803772	122.18178606033324	[['y', 121.41848802566528]]	1.0	seen	False	False	2.1984880256652843	2.9847850799560547	1.0	26.0	1619033612.1407	False		False	7.0	0.0	154.0
6	ses-002	28	images_fmri/handcuff/handcuff_05s.jpg	seen	3641	304	5	None	747.0	10699.0	5.0	seen-within-between	3	3	123.69	2.98	True	True	123.6651599407196	126.64778399467468	[['b', 126.15555214881897]]	2.0	seen	False	True	2.465552148818972	2.982624053955078	1.0	27.0	1619033616.6089	False		False	7.0	0.0	254.0
6	ses-002	29	images_fmri/needle/needle_05n.jpg	seen	5045	421	5	None	1056.0	15033.0	5.0	seen-within-between	3	3	128.16	2.98	True	False	128.14881801605225	131.11567211151123	[['y', 130.18985319137573]]	1.0	seen	False	False	2.029853191375736	2.9668540954589844	1.0	28.0	1619033621.0925	False		False	7.0	0.0	286.0
