subject	session	TrialNumber	image_path	condition	image_nr	category_nr	exemplar_nr	test_image_nr	things_category_nr	things_image_nr	things_exemplar_nr	subcondition	repetition	run	onset	duration	response_mapping_flip_h	response_mapping_flip_v	onset_flip	offset_flip	keypresses	response	response_txt	error	response_confidence	response_time	duration_flip	ran	order	session_trial_time	atypical	atypical_log	exclude_session	delay_days	delay_seconds	trials_since_lastrep
06	ses-002	1	images_fmri/battery/battery_05n.jpg	seen	449	38	5	None	98.0	1473.0	5.0	seen-between	2	5	3.0	2.98	False	True	2.9870200157165527	5.9704201221466064	[['y', 6.030259132385254]]	-2.0	unseen	True	True	3.030259132385254	2.9834001064300537	1.0	0.0	1619034245.8302	False		False	7.0	0.0	245.0
06	ses-002	2	images_fmri/mascara/mascara_05s.jpg	seen	4661	389	5	None	979.0	13951.0	5.0	seen-within-between	3	5	7.47	2.98	True	False	7.453351020812988	10.436317920684814	[['x', 9.877449035644531]]	2.0	seen	False	True	2.4074490356445315	2.982966899871826	1.0	1.0	1619034250.2965	False		False	7.0	0.0	286.0
06	ses-002	3	images_fmri/eggbeater/eggbeater_05s.jpg	seen	2729	228	5	None	549.0	7966.0	5.0	seen-within	2	5	11.94	2.98	False	True	11.93274998664856	14.900033950805664	[['b', 13.207297086715698]]	2.0	seen	False	True	1.2672970867156987	2.9672839641571045	1.0	2.0	1619034254.7759	False		False	0.0	317.03719997406006	47.0
06	ses-002	4	images_fmri/jar/jar_05s.jpg	unseen	3989	333	5	None	841.0	12024.0	5.0	unseen-within	1	5	16.41	2.98	False	True	16.40441393852234	19.382466077804565	[['y', 18.192238092422485]]	-2.0	unseen	False	True	1.7822380924224852	2.9780521392822266	1.0	3.0	1619034259.2476	False		False			
06	ses-002	5	images_fmri/lime/lime_05s.jpg	seen	4397	367	5	None	931.0	13295.0	5.0	seen-within-between	3	5	20.88	2.98	False	False	20.871165990829468	23.84909701347351	[['a', 23.208538055419922]]	1.0	seen	False	False	2.328538055419923	2.977931022644043	1.0	4.0	1619034263.7144	False		False	7.0	0.0	255.0
06	ses-002	6	images_fmri/sandpaper/sandpaper_05s.jpg	seen	6437	537	5	None	1357.0	19301.0	5.0	seen-within	2	5	25.35	2.98	True	False	25.33105492591858	28.31506896018982	[['x', 26.2617290019989]]	2.0	seen	False	True	0.9117290019989	2.98401403427124	1.0	5.0	1619034268.1742	False		False	0.0	165.04590010643005	13.0
06	ses-002	7	images_fmri/projector/projector_05s.jpg	unseen	5969	498	5	None	1243.0	17678.0	5.0	unseen-between	1	5	29.82	2.98	False	False	29.816792011260983	32.782114028930664	[['y', 32.03956198692322]]	-2.0	unseen	False	True	2.219561986923217	2.9653220176696777	1.0	6.0	1619034272.6600	False		False			
06	ses-002	8	images_fmri/seagull/seagull_05s.jpg	seen	6581	549	5	None	1396.0	19827.0	5.0	seen-between	2	5	34.29	2.98	True	True	34.28120303153992	37.26432704925537	[['y', 37.12694001197815]]	1.0	seen	False	False	2.8369400119781503	2.983124017715454	1.0	7.0	1619034277.1244	False		False	7.0	0.0	263.0
06	ses-002	9	images_fmri/punching_bag/punching_bag_05s.jpg	seen	6029	503	5	None	1257.0	17906.0	5.0	seen-between-within	3	5	38.76	2.98	True	True	38.74810409545898	41.73085999488831	[['b', 39.98927116394043]]	2.0	seen	False	True	1.2292711639404317	2.9827558994293213	1.0	8.0	1619034281.5913	False		False	0.0	1475.4950001239777	234.0
06	ses-002	10	images_fmri/cellphone/cellphone_05s.jpg	unseen	1529	128	5	None	294.0	4290.0	5.0	unseen-between	1	5	43.23	2.98	True	False	43.21579694747925	46.197463035583496	[['a', 45.00898504257202]]	-2.0	unseen	False	True	1.7789850425720246	2.981666088104248	1.0	9.0	1619034286.0590	False		False			
06	ses-002	11	images_fmri/burrito/burrito_05s.jpg	unseen	1169	98	5	None	226.0	3372.0	5.0	unseen-within	1	5	47.7	2.98	True	True	47.68176698684693	50.66505694389343	[['a', 50.0369770526886]]	-2.0	unseen	False	True	2.336977052688596	2.983289957046509	1.0	10.0	1619034290.5250	False		False			
06	ses-002	12	images_fmri/ski_pole/ski_pole_05s.jpg	unseen	6809	568	5	None	1456.0	20645.0	5.0	unseen-between	1	5	52.17	2.98	True	False	52.16553807258606	55.1314070224762	[['a', 53.961634159088135]]	-2.0	unseen	False	True	1.791634159088133	2.9658689498901367	1.0	11.0	1619034295.0087	False		False			
06	ses-002	13	images_fmri/hairpin/hairpin_05s.jpg	unseen	3569	298	5	None	738.0	10584.0	5.0	unseen-between	1	5	56.64	2.98	True	False	56.6371500492096	59.61589002609253	[['a', 57.91179609298706]]	-2.0	unseen	False	True	1.27179609298706	2.9787399768829346	1.0	12.0	1619034299.4803	False		False			
06	ses-002	14	images_fmri/camera1/camera1_05s.jpg	unseen	1289	108	5	None	248.0	3670.0	5.0	unseen-within	1	5	61.11	2.98	False	False	61.10203695297241	64.08130192756653	[['y', 62.8798770904541]]	-2.0	unseen	False	True	1.769877090454102	2.979264974594116	1.0	13.0	1619034303.9452	False		False			
06	ses-002	15	images_fmri/jar/jar_05s.jpg	seen	3989	333	5	None	841.0	12024.0	5.0	seen-within	2	5	65.58	2.98	False	False	65.56561398506165	68.54693412780762	[['x', 66.59901714324951]]	2.0	seen	False	True	1.0190171432495134	2.981320142745972	1.0	14.0	1619034308.4088	False		False	0.0	49.16119980812073	11.0
06	ses-002	16	images_fmri/cannon/cannon_05s.jpg	seen	1373	115	5	None	261.0	3837.0	5.0	seen-between-within	3	5	70.05	2.98	False	False	70.03201103210449	73.01341104507446	[['x', 71.15069818496704]]	2.0	seen	False	True	1.100698184967044	2.9814000129699707	1.0	15.0	1619034312.8752	False		False	0.0	656.0355999469757	99.0
06	ses-002	17	images_fmri/thumbtack/thumbtack_05s.jpg	seen	7685	641	5	None	1655.0	23367.0	5.0	seen-between	2	5	74.52	2.98	False	True	74.5150671005249	77.48165893554688	[['b', 76.45771408081055]]	2.0	seen	False	True	1.9377140808105509	2.9665918350219727	1.0	16.0	1619034317.3583	False		False	7.0	0.0	382.0
06	ses-002	18	images_fmri/chalkboard/chalkboard_05s.jpg	unseen	1577	132	5	None	304.0	4428.0	5.0	unseen-within	1	5	78.99	2.98	True	False	78.98034310340881	81.96561312675476							2.9852700233459477	1.0	17.0	1619034321.8235	False		False			
06	ses-002	19	images_fmri/sombrero/sombrero_05s.jpg	unseen	6977	582	5	None	1496.0	21170.0	5.0	unseen-within	1	5	83.46	2.98	False	True	83.44653415679932	86.4297239780426	[['y', 85.01164507865906], ['a', 86.11569118499756]]	-2.0	unseen	False	True	1.551645078659064	2.983189821243286	1.0	18.0	1619034326.2897	False		False			
06	ses-002	20	images_fmri/seagull/seagull_05s.jpg	seen	6581	549	5	None	1396.0	19827.0	5.0	seen-between-within	3	5	87.92999999999998	2.98	False	True	87.91300702095032	90.89617705345154	[['b', 88.96863412857056]]	2.0	seen	False	True	1.0386341285705782	2.9831700325012207	1.0	19.0	1619034330.7562	False		False	0.0	53.631800174713135	12.0
06	ses-002	21	images_fmri/thimble/thimble_05n.jpg	seen	7673	640	5	None	1650.0	23302.0	5.0	seen-within	2	5	92.4	2.98	False	False	92.38068294525146	95.36414694786072	[['x', 93.25019001960754]]	2.0	seen	False	True	0.8501900196075383	2.983464002609253	1.0	20.0	1619034335.2239	False		False	0.0	1155.9393000602722	186.0
06	ses-002	22	images_fmri/inhaler/inhaler_05s.jpg	unseen	3941	329	5	None	829.0	11856.0	5.0	unseen-between	1	5	96.87	2.98	False	False	96.86749601364136	99.83042001724245	[['y', 98.29385304450989]]	-2.0	unseen	False	True	1.4238530445098831	2.962924003601074	1.0	21.0	1619034339.7107	False		False			
06	ses-002	23	images_fmri/drain/drain_05s.jpg	seen	2573	215	5	None	516.0	7488.0	5.0	seen-between	2	5	101.34	2.98	False	True	101.33415198326112	104.3148181438446	[['b', 103.41509699821472]]	2.0	seen	False	True	2.0750969982147183	2.980666160583496	1.0	22.0	1619034344.1773	False		False	7.0	0.0	359.0
06	ses-002	24	images_fmri/banana/banana_05s.jpg	unseen	353	30	5	None	64.0	952.0	5.0	unseen-between	1	5	105.81	2.98	False	True	105.79689598083496	108.78132104873656	[['y', 108.27995610237122]]	-2.0	unseen	False	True	2.469956102371213	2.9844250679016118	1.0	23.0	1619034348.6401	False		False			
06	ses-002	25	images_fmri/camera1/camera1_05s.jpg	seen	1289	108	5	None	248.0	3670.0	5.0	seen-within	2	5	110.28	2.98	False	False	110.26343512535097	113.24673295021056	[['x', 111.61264896392822]]	2.0	seen	False	True	1.3326489639282215	2.983297824859619	1.0	24.0	1619034353.1066	False		False	0.0	49.16140007972717	11.0
06	ses-002	26	images_fmri/space_shuttle/space_shuttle_05s.jpg	seen	7013	585	5	None	1502.0	21250.0	5.0	seen-between	2	5	114.75	2.98	False	True	114.73054909706116	117.7134211063385	[['y', 117.28364300727844]]	-2.0	unseen	True	True	2.5336430072784424	2.982872009277344	1.0	25.0	1619034357.5737	False		False	7.0	0.0	361.0
06	ses-002	27	images_fmri/pecan/pecan_05s.jpg	seen	5441	454	5	None	1136.0	16171.0	5.0	seen-within-between	3	5	119.22	2.98	True	True	119.2128050327301	122.17993712425232	[['a', 122.26887106895447]]	-2.0	unseen	True	True	3.048871068954469	2.967132091522217	1.0	26.0	1619034362.0560	False		False	7.0	0.0	279.0
06	ses-002	28	images_fmri/burrito/burrito_05s.jpg	seen	1169	98	5	None	226.0	3372.0	5.0	seen-within	2	5	123.69	2.98	True	True	123.67967295646667	126.662132024765	[['b', 124.76945900917053]]	2.0	seen	False	True	1.0794590091705345	2.98245906829834	1.0	27.0	1619034366.5229	False		False	0.0	75.99790000915527	17.0
06	ses-002	29	images_fmri/closet/closet_05s.jpg	seen	1829	153	5	None	361.0	5218.0	5.0	seen-within-between	3	5	128.16	2.98	False	False	128.14724707603455	131.12926506996155	[['x', 129.71697807312012]]	2.0	seen	False	True	1.5569780731201206	2.982017993927002	1.0	28.0	1619034370.9904	False		False	7.0	0.0	288.0
06	ses-002	30	images_fmri/steak/steak_05s.jpg	seen	7205	601	5	None	1545.0	21828.0	5.0	seen-within	2	5	132.63	2.98	False	False	132.61308598518372	135.59525799751282	[['x', 133.6527030467987]]	2.0	seen	False	True	1.0227030467987106	2.9821720123291016	1.0	29.0	1619034375.4563	False		False	0.0	691.7997999191284	107.0
06	ses-002	31	images_fmri/pistachio/pistachio_05s.jpg	seen	5657	472	5	None	1189.0	16909.0	5.0	seen-between	2	5	137.1	2.98	True	True	137.0795660018921	140.06316995620728	[['b', 138.49824213981628]]	2.0	seen	False	True	1.39824213981629	2.983603954315185	1.0	30.0	1619034379.9228	False		False	7.0	0.0	276.0
06	ses-002	32	images_fmri/glass/glass_05s.jpg	seen	3269	273	5	None	678.0	9712.0	5.0	seen-within-between	3	5	141.57	2.98	True	False	141.56891012191772	144.53073406219482	[['a', 143.71285200119019]]	-2.0	unseen	True	True	2.1428520011901924	2.9618239402771	1.0	31.0	1619034384.4121	False		False	7.0	0.0	357.0
06	ses-002	33	images_fmri/clarinet/clarinet_05n.jpg	seen	1781	149	5	None	351.0	5079.0	5.0	seen-between-within	3	5	146.04	2.98	True	True	146.0292501449585	149.0127739906311	[['b', 147.35784697532654]]	2.0	seen	False	True	1.317846975326546	2.9835238456726074	1.0	32.0	1619034388.8724	False		False	0.0	334.9081001281738	51.0
06	ses-002	34	images_fmri/record/record_05s.jpg	seen	6197	517	5	None	1296.0	18435.0	5.0	seen-between	2	5	150.51	2.98	True	True	150.5017659664154	153.4796040058136	[['b', 152.24833798408508]]	2.0	seen	False	True	1.738337984085092	2.9778380393981934	1.0	33.0	1619034393.3450	False		False	7.0	0.0	319.0
06	ses-002	35	images_fmri/meatball/meatball_05s.jpg	seen	4733	395	5	None	990.0	14100.0	5.0	seen-between-within	3	5	154.98	2.98	True	False	154.96851205825806	157.94845509529114	[['x', 155.91725397109985]]	2.0	seen	False	True	0.9372539710998636	2.979943037033081	1.0	34.0	1619034397.8117	False		False	0.0	469.01030015945435	81.0
06	ses-002	36	images_fmri/satellite_dish/satellite_dish_05s.jpg	unseen	6449	538	5	None	1362.0	19364.0	5.0	unseen-between	1	5	159.45	2.98	False	True	159.42743301391602	162.41048097610474	[['y', 162.24973917007446]]	-2.0	unseen	False	True	2.7997391700744743	2.9830479621887207	1.0	35.0	1619034402.2706	False		False			
06	ses-002	37	images_fmri/ping-pong_table/ping-pong_table_05s.jpg	seen	5633	470	5	None	1185.0	16857.0	5.0	seen-between	2	5	163.92	2.98	True	True	163.91023802757263	166.8772010803223	[['b', 165.7206530570984]]	2.0	seen	False	True	1.8006530570984012	2.966963052749634	1.0	36.0	1619034406.7534	False		False	7.0	0.0	279.0
06	ses-002	38	images_fmri/doll/doll_05s.jpg	unseen	2465	206	5	None	500.0	7223.0	5.0	unseen-between	1	5	168.39	2.98	True	True	168.37731504440308	171.36007595062256	[['a', 170.4075210094452]]	-2.0	unseen	False	True	2.017521009445204	2.9827609062194824	1.0	37.0	1619034411.2205	False		False			
06	ses-002	39	images_fmri/tie/tie_05s.jpg	seen	7709	643	5	None	1659.0	23418.0	5.0	seen-between-within	3	5	172.86	2.98	False	True	172.84334301948547	175.82657599449158	[['b', 174.90847516059875]]	2.0	seen	False	True	2.048475160598741	2.9832329750061035	1.0	38.0	1619034415.6865	False		False	0.0	1084.4197001457214	170.0
06	ses-002	40	images_fmri/avocado/avocado_05s.jpg	unseen	245	21	5	None	44.0	608.0	5.0	unseen-between	1	5	177.32999999999996	2.98	False	False	177.31051397323608	180.29321908950809	[['y', 179.07241106033325]]	-2.0	unseen	False	True	1.7424110603332963	2.9827051162719727	1.0	39.0	1619034420.1537	False		False			
06	ses-002	41	images_fmri/rocking_chair/rocking_chair_05s.jpg	unseen	6341	529	5	None	1322.0	18812.0	5.0	unseen-between	1	5	181.8	2.98	True	True	181.7931659221649	184.75969195365903	[['a', 184.18169903755188]]	-2.0	unseen	False	True	2.3816990375518685	2.9665260314941406	1.0	40.0	1619034424.6364	False		False			
06	ses-002	42	images_fmri/space_shuttle/space_shuttle_05s.jpg	seen	7013	585	5	None	1502.0	21250.0	5.0	seen-between-within	3	5	186.27	2.98	True	False	186.26139211654663	189.24612307548523	[['x', 187.4794180393219]]	2.0	seen	False	True	1.2094180393218892	2.984730958938598	1.0	41.0	1619034429.1046	False		False	0.0	71.53090000152588	16.0
06	ses-002	43	images_fmri/scarecrow/scarecrow_05s.jpg	unseen	6497	542	5	None	1377.0	19558.0	5.0	unseen-within	1	5	190.74	2.98	False	False	190.7340030670166	193.7114901542664	[['y', 192.06668496131897]]	-2.0	unseen	False	True	1.3266849613189606	2.977487087249756	1.0	42.0	1619034433.5772	False		False			
06	ses-002	44	images_fmri/fig/fig_05s.jpg	seen	2909	243	5	None	582.0	8423.0	5.0	seen-between-within	3	5	195.21	2.98	True	False	195.1994700431824	198.1781051158905	[['x', 196.09996104240417]]	2.0	seen	False	True	0.8899610424041668	2.97863507270813	1.0	43.0	1619034438.0427	False		False	0.0	682.8545000553131	105.0
06	ses-002	45	images_fmri/antenna/antenna_05s.jpg	seen	161	14	5	None	28.0	384.0	5.0	seen-within-between	3	5	199.68	2.98	True	True	199.6663129329681	202.64540100097656	[['b', 201.76622414588928]]	2.0	seen	False	True	2.0862241458892754	2.979088068008423	1.0	44.0	1619034442.5095	False		False	7.0	0.0	408.0
06	ses-002	46	images_fmri/skunk/skunk_05s.jpg	seen	6821	569	5	None	1460.0	20698.0	5.0	seen-within-between	3	5	204.15	2.98	False	True	204.1446189880371	207.11428213119507	[['b', 205.40353918075562]]	2.0	seen	False	True	1.2535391807556096	2.969663143157959	1.0	45.0	1619034446.9878	False		False	7.0	0.0	332.0
06	ses-002	47	images_fmri/broom/broom_05s.jpg	unseen	1025	86	5	None	204.0	3078.0	5.0	unseen-within	1	5	208.62	2.98	True	False	208.61624908447263	211.5952639579773	[['a', 210.99197101593018]]	-2.0	unseen	False	True	2.3719710159301712	2.9790148735046387	1.0	46.0	1619034451.4594	False		False			
06	ses-002	48	images_fmri/chalkboard/chalkboard_05s.jpg	seen	1577	132	5	None	304.0	4428.0	5.0	seen-within	2	5	213.09	2.98	True	True	213.07764601707456	216.0608570575714	[['b', 214.35405206680298]]	2.0	seen	False	True	1.264052066802975	2.983211040496826	1.0	47.0	1619034455.9208	False		False	0.0	134.09730005264282	30.0
06	ses-002	49	images_fmri/zucchini/zucchini_05s.jpg	seen	8633	720	5	None	1854.0	26099.0	5.0	seen-within-between	3	5	217.56	2.98	True	False	217.54918098449707	220.52915906906128	[['b', 221.0374150276184]]	-1.0	unseen	True	False	3.477415027618406	2.979978084564209	1.0	48.0	1619034460.3924	False		False	7.0	0.0	292.0
06	ses-002	50	images_fmri/thermostat/thermostat_05s.jpg	unseen	7661	639	5	None	1649.0	23286.0	5.0	unseen-between	1	5	222.03	2.98	False	True	222.0107741355896	224.9930169582367	[['y', 224.53517198562622]]	-2.0	unseen	False	True	2.50517198562622	2.9822428226470947	1.0	49.0	1619034464.8540	False		False			
06	ses-002	51	images_fmri/cane/cane_05n.jpg	unseen	1361	114	5	None	259.0	3810.0	5.0	unseen-between	1	5	226.5	2.98	False	True	226.49300408363345	229.46062994003296	[['b', 229.20115208625793]]	2.0	seen	True	True	2.7011520862579346	2.967625856399536	1.0	50.0	1619034469.3362	False		False			
06	ses-002	52	images_fmri/scarecrow/scarecrow_05s.jpg	seen	6497	542	5	None	1377.0	19558.0	5.0	seen-within	2	5	230.97	2.98	True	False	230.96063494682312	233.94362998008728	[['x', 231.94052410125732]]	2.0	seen	False	True	0.9705241012573254	2.98299503326416	1.0	51.0	1619034473.8038	False		False	0.0	40.2266001701355	9.0
06	ses-002	53	images_fmri/papaya/papaya_05s.jpg	seen	5321	444	5	None	1112.0	15821.0	5.0	seen-between-within	3	5	235.44	2.98	True	False	235.43275594711304	238.4114010334015	[['x', 236.44595217704773]]	2.0	seen	False	True	1.0059521770477318	2.978645086288452	1.0	52.0	1619034478.2760	False		False	0.0	866.1352999210358	146.0
06	ses-002	54	images_fmri/petal/petal_05s.jpg	seen	5513	460	5	None	1159.0	16490.0	5.0	seen-within	2	5	239.91	2.98	False	True	239.89809393882751	242.8833749294281	[['b', 241.16369700431824]]	2.0	seen	False	True	1.2536970043182407	2.985280990600586	1.0	53.0	1619034482.7413	False		False	0.0	1649.8286001682281	273.0
06	ses-002	55	images_fmri/plastic_film/plastic_film_05s.jpg	seen	5681	474	5	None	1197.0	17016.0	5.0	seen-within	2	5	244.38	2.98	True	False	244.36346912384036	247.3460800647736	[['x', 245.41709303855896]]	2.0	seen	False	True	1.0370930385589645	2.9826109409332275	1.0	54.0	1619034487.2067	False		False	0.0	428.7750999927521	72.0
06	ses-002	56	images_fmri/muffin/muffin_05n.jpg	unseen	4973	415	5	None	1036.0	14764.0	5.0	unseen-within	1	5	248.85	2.98	False	False	248.84463715553284	251.81060910224917	[['y', 251.66562604904175]]	-2.0	unseen	False	True	2.8156260490417537	2.9659719467163086	1.0	55.0	1619034491.6878	False		False			
06	ses-002	57	images_fmri/record/record_05s.jpg	seen	6197	517	5	None	1296.0	18435.0	5.0	seen-between-within	3	5	253.32	2.98	True	True	253.3088960647583	256.29226994514465	[['b', 254.38314509391785]]	2.0	seen	False	True	1.0631450939178535	2.9833738803863525	1.0	56.0	1619034496.1521	False		False	0.0	102.80710005760193	23.0
06	ses-002	58	images_fmri/sundial/sundial_05s.jpg	seen	7361	614	5	None	1584.0	22365.0	5.0	seen-within	2	5	257.79	2.98	False	False	257.7766320705414	260.75885701179504	[['x', 258.65784096717834]]	2.0	seen	False	True	0.8678409671783243	2.982224941253662	1.0	57.0	1619034500.6198	False		False	0.0	406.42519998550415	67.0
06	ses-002	59	images_fmri/touchpad/touchpad_05s.jpg	seen	7877	657	5	None	1692.0	23874.0	5.0	seen-between-within	3	5	262.26	2.98	True	False	262.2448539733887	265.22615814208984	[['x', 263.4821310043335]]	2.0	seen	False	True	1.2221310043335052	2.981304168701172	1.0	58.0	1619034505.0880	False		False	0.0	1379.4339001178741	236.0
06	ses-002	60	images_fmri/thumbtack/thumbtack_05s.jpg	seen	7685	641	5	None	1655.0	23367.0	5.0	seen-between-within	3	5	266.73	2.98	False	True	266.70973014831543	269.6929700374603	[['b', 267.6558439731598]]	2.0	seen	False	True	0.9258439731597718	2.983239889144897	1.0	59.0	1619034509.5529	False		False	0.0	192.19460010528564	43.0
