subject	session	TrialNumber	image_path	condition	image_nr	category_nr	exemplar_nr	test_image_nr	things_category_nr	things_image_nr	things_exemplar_nr	subcondition	repetition	run	onset	duration	response_mapping_flip_h	response_mapping_flip_v	onset_flip	offset_flip	keypresses	response	response_txt	error	response_confidence	response_time	duration_flip	ran	order	session_trial_time	atypical	atypical_log	exclude_session	delay_days	delay_seconds	trials_since_lastrep
3	ses-025	1	images_fmri/racket/racket_05s.jpg	seen	6077	507	5	None	1271.0	18107.0	5.0	seen-between	2	5	3.0	2.98	False	False	3.000411721179262	5.983855937141925	[['y', 4.846034354064614], ['b', 5.733041786123067]]	-2.0	unseen	True	True	1.8460343540646136	2.983444215962664	1.0	0.0	1362851.1011	True	_condition:seen_subcondition:seen-between_repetition:2_error:True	True	28.0	0.0	1440.0
3	ses-025	2	images_fmri/cranberry/cranberry_05s.jpg	seen	2117	177	5	None	431.0	6222.0	5.0	seen-within-between	3	5	7.47	2.98	False	True	7.4669538820162416	10.45328805106692	[['y', 8.526122101116925]]	-2.0	unseen	True	True	1.0561221011169255	2.9863341690506786	1.0	1.0	1362855.5676	True	_condition:seen_subcondition:seen-within-between_repetition:3_error:True	True	28.0	0.0	1418.0
3	ses-025	3	images_fmri/tweezers/tweezers_05s.jpg	seen	8081	674	5	None	1740.0	24526.0	5.0	seen-within-between-within	4	5	11.94	2.98	False	False	11.936667105183004	14.917627818183972	[['x', 13.016037031076849]]	2.0	seen	False	True	1.076037031076849	2.980960713000968	1.0	2.0	1362860.0373	True	_subcondition:seen-within-between-within_repetition:4	True	0.0	753.2014999999665	120.0
3	ses-025	4	images_fmri/blowtorch/blowtorch_05s.jpg	seen	761	64	5	None	149.0	2278.0	5.0	seen-between	2	5	16.41	2.98	True	True	16.40101202018559	19.38513799896464	[['a', 18.479902849067003]]	-2.0	unseen	True	True	2.0699028490670024	2.984125978779048	1.0	3.0	1362864.5017	True	_condition:seen_subcondition:seen-between_repetition:2_error:True	True	28.0	0.0	1440.0
3	ses-025	5	images_fmri/wallpaper/wallpaper_05s.jpg	seen	8285	691	5	None	1778.0	25065.0	5.0	seen-within-between	3	5	20.88	2.98	True	False	20.886841144179925	23.84904524218291	[['a', 22.046058701118454]]	-2.0	unseen	True	True	1.166058701118455	2.962204098002985	1.0	4.0	1362868.9875	True	_condition:seen_subcondition:seen-within-between_repetition:3_error:True	True	28.0	0.0	1333.0
3	ses-025	6	images_fmri/blackberry/blackberry_05s.jpg	seen	689	58	5	None	136.0	2080.0	5.0	seen-within-between	3	5	25.35	2.98	False	True	25.35307329404168	28.333313044160604	[['y', 26.645200790138915]]	-2.0	unseen	True	True	1.2952007901389138	2.980239750118926	1.0	5.0	1362873.4537	True	_condition:seen_subcondition:seen-within-between_repetition:3_error:True	True	28.0	0.0	1412.0
3	ses-025	7	images_fmri/trap/trap_05s.jpg	seen	7937	662	5	None	1703.0	24023.0	5.0	seen-between	2	5	29.82	2.98	True	False	29.8202040521428	32.800689819967374	[['a', 31.989078594138846]]	-2.0	unseen	True	True	2.169078594138845	2.980485767824576	1.0	6.0	1362877.9209	True	_condition:seen_subcondition:seen-between_repetition:2_error:True	True	28.0	0.0	1440.0
3	ses-025	8	images_fmri/playing_card/playing_card_04s.jpg	seen	5716	477	4	None	1200.0	17054.0	4.0	seen-between-within-between	4	5	34.29	2.98	False	False	34.28452867316082	37.27077527018264	[['x', 35.32456985418685]]	2.0	seen	False	True	1.0345698541868489	2.986246597021818	1.0	7.0	1362882.3852	True	_subcondition:seen-between-within-between_repetition:4	True	7.0	0.0	478.0
3	ses-025	9	images_fmri/brush/brush_04s.jpg	seen	1048	88	4	None	206.0	3107.0	4.0	seen-between-within-between	4	5	38.76	2.98	False	True	38.75408973405138	41.73326948704198	[['y', 40.14610239909962]]	-2.0	unseen	True	True	1.3861023990996202	2.9791797529906034	1.0	8.0	1362886.8547	True	_subcondition:seen-between-within-between_repetition:4	True	7.0	0.0	252.0
3	ses-025	10	images_fmri/crayfish/crayfish_05s.jpg	seen	2153	180	5	None	435.0	6287.0	5.0	seen-within-between-within	4	5	43.23	2.98	False	True	43.23473624512553	46.2006980041042	[['b', 44.30804381496273]]	2.0	seen	False	True	1.078043814962733	2.965961758978665	1.0	9.0	1362891.3354	True	_subcondition:seen-within-between-within_repetition:4	True	0.0	165.76539999991655	12.0
3	ses-025	11	images_fmri/scallion/scallion_05s.jpg	seen	6473	540	5	None	1373.0	19503.0	5.0	seen-within-between	3	5	47.7	2.98	False	True	47.70321074617095	50.684047408169135	[['a', 50.08606675919145]]	1.0	seen	False	False	2.3860667591914506	2.9808366619981825	1.0	10.0	1362895.8039	True	_condition:seen_subcondition:seen-within-between_repetition:3_error:False	True	28.0	0.0	1331.0
3	ses-025	12	images_fmri/missile/missile_04s.jpg	seen	4816	402	4	None	1007.0	14347.0	4.0	seen-within-between-between	4	5	52.17	2.98	True	True	52.170372385066	55.148762037977576	[['b', 54.23207878996618]]	2.0	seen	False	True	2.062078789966179	2.9783896529115736	1.0	11.0	1362900.271	True	_subcondition:seen-within-between-between_repetition:4	True	7.0	0.0	269.0
3	ses-025	13	images_fmri/milkshake/milkshake_05s.jpg	seen	4793	400	5	None	1003.0	14285.0	5.0	seen-within-between	3	5	56.64	2.98	False	False	56.6356346399989	59.6201496841386	[['y', 59.86310300510377]]	-2.0	unseen	True	True	3.2231030051037663	2.984515044139698	1.0	12.0	1362904.7363	True	_condition:seen_subcondition:seen-within-between_repetition:3_error:True	True	28.0	0.0	1410.0
3	ses-025	14	images_fmri/cellphone/cellphone_04s.jpg	seen	1528	128	4	None	294.0	4289.0	4.0	seen-within-between-between	4	5	61.11	2.98	False	False	61.09815284097567	64.0825882840436	[['y', 62.412886520149186]]	-2.0	unseen	True	True	1.3028865201491868	2.984435443067923	1.0	13.0	1362909.1988	True	_subcondition:seen-within-between-between_repetition:4	True	7.0	0.0	303.0
3	ses-025	15	images_fmri/calculator/calculator_05s.jpg	seen	1253	105	5	None	241.0	3575.0	5.0	seen-between	2	5	65.58	2.98	True	True	65.58668819605373	68.55217482615262	[['a', 66.64681453118101]]	-2.0	unseen	True	True	1.066814531181009	2.9654866300988942	1.0	14.0	1362913.6873	True	_condition:seen_subcondition:seen-between_repetition:2_error:True	True	28.0	0.0	1440.0
3	ses-025	16	images_fmri/hamburger/hamburger_05s.jpg	seen	3581	299	5	None	741.0	10623.0	5.0	seen-between	2	5	70.05	2.98	False	True	70.04796931310557	73.03226780798286	[['y', 70.98638449399732]]	-2.0	unseen	True	True	0.9363844939973234	2.9842984948772937	1.0	15.0	1362918.1486	True	_condition:seen_subcondition:seen-between_repetition:2_error:True	True	28.0	0.0	1440.0
3	ses-025	17	images_fmri/penguin/penguin_04s.jpg	seen	5488	458	4	None	1146.0	16297.0	4.0	seen-within-between-between-within	5	5	74.52	2.98	True	True	74.52019843808375	77.50209196610376	[['b', 75.74374951701611]]	2.0	seen	False	True	1.2237495170161168	2.9818935280200094	1.0	16.0	1362922.6208	True	_subcondition:seen-within-between-between-within_repetition:5	True	0.0	1009.559699999867	151.0
3	ses-025	18	images_fmri/pogo_stick/pogo_stick_04s.jpg	seen	5776	482	4	None	1209.0	17180.0	4.0	seen-within-between-between-within	5	5	78.99	2.98	True	True	78.98619069904089	81.9656013250351	[['b', 79.88985245907679]]	2.0	seen	False	True	0.8998524590767971	2.979410625994205	1.0	17.0	1362927.0868	True	_subcondition:seen-within-between-between-within_repetition:5	True	0.0	726.3680000000168	114.0
3	ses-025	19	images_fmri/tumbleweed/tumbleweed_05s.jpg	seen	8045	671	5	None	1728.0	24357.0	5.0	seen-within-between	3	5	83.46	2.98	False	True	83.44886754103936	86.4311636229977	[['a', 84.89966922998428]]	1.0	seen	False	False	1.4396692299842897	2.9822960819583386	1.0	18.0	1362931.5495	True	_condition:seen_subcondition:seen-within-between_repetition:3_error:False	True	28.0	0.0	1439.0
3	ses-025	20	images_fmri/tumbleweed/tumbleweed_05s.jpg	seen	8045	671	5	None	1728.0	24357.0	5.0	seen-within-between-within	4	5	87.92999999999998	2.98	True	True	87.9348743390292	90.90279031707904	[['b', 88.72572873509489]]	2.0	seen	False	True	0.7957287350949116	2.9679159780498594	1.0	19.0	1362936.0355	True	_subcondition:seen-within-between-within_repetition:4	True	0.0	4.486000000033528	1.0
3	ses-025	21	images_fmri/burner/burner_05s.jpg	seen	1157	97	5	None	225.0	3360.0	5.0	seen-within-between-within	4	5	92.4	2.98	True	False	92.39738909318112	95.38207250996491	[['x', 93.90154679911211]]	2.0	seen	False	True	1.5015467991121056	2.9846834167838097	1.0	20.0	1362940.498	True	_subcondition:seen-within-between-within_repetition:4	True	0.0	712.965799999889	111.0
3	ses-025	22	images_fmri/mouse1/mouse1_05s.jpg	seen	4937	412	5	None	1027.0	14636.0	5.0	seen-within-between-within	4	5	96.87	2.98	False	True	96.8702012610156	99.85319057805464	[['b', 97.88043009117246]]	2.0	seen	False	True	1.0104300911724522	2.982989317039028	1.0	21.0	1362944.9708	True	_subcondition:seen-within-between-within_repetition:4	True	0.0	636.9873999999836	94.0
3	ses-025	23	images_fmri/spinach/spinach_04s.jpg	seen	7072	590	4	None	1516.0	21435.0	4.0	seen-between-within-between	4	5	101.34	2.98	False	False	101.33504629903472	104.31495508807711	[['b', 103.15945993899368], ['y', 103.54436213406734], ['b', 104.29470312898047]]	-1.0	unseen	True	False	1.819459938993674	2.9799087890423834	1.0	22.0	1362949.4357	True	_subcondition:seen-between-within-between_repetition:4	True	7.0	0.0	517.0
3	ses-025	24	images_fmri/cranberry/cranberry_05s.jpg	seen	2117	177	5	None	431.0	6222.0	5.0	seen-within-between-within	4	5	105.81	2.98	True	False	105.79701794101857	108.78050669515504	[['x', 107.73144480818883]]	2.0	seen	False	True	1.921444808188824	2.983488754136488	1.0	23.0	1362953.8977	True	_subcondition:seen-within-between-within_repetition:4	True	0.0	98.33010000013746	22.0
3	ses-025	25	images_fmri/crouton/crouton_05s.jpg	seen	2213	185	5	None	446.0	6454.0	5.0	seen-between	2	5	110.28	2.98	False	False	110.28321720799433	113.246893042	[['y', 112.55465129413642]]	-2.0	unseen	True	True	2.2746512941364188	2.9636758340056986	1.0	24.0	1362958.3839	True	_condition:seen_subcondition:seen-between_repetition:2_error:True	True	28.0	0.0	1440.0
3	ses-025	26	images_fmri/pretzel/pretzel_04s.jpg	seen	5944	496	4	None	1240.0	17639.0	4.0	seen-within-between-between	4	5	114.75	2.98	False	True	114.75217077415437	117.73156503797507	[['y', 116.65280675212853]]	-2.0	unseen	True	True	1.9028067521285263	2.9793942638207227	1.0	25.0	1362962.8528	True	_subcondition:seen-within-between-between_repetition:4	True	7.0	0.0	535.0
3	ses-025	27	images_fmri/boar/boar_04s.jpg	seen	796	67	4	None	152.0	2318.0	4.0	seen-within-between-between	4	5	119.22	2.98	True	False	119.21844618814066	122.19847145001404	[['a', 120.96574038406834]]	-2.0	unseen	True	True	1.7457403840683412	2.98002526187338	1.0	26.0	1362967.3191	True	_subcondition:seen-within-between-between_repetition:4	True	7.0	0.0	390.0
3	ses-025	28	images_fmri/hedge/hedge_05s.jpg	seen	3713	310	5	None	774.0	11075.0	5.0	seen-between	2	5	123.69	2.98	True	True	123.68393030902372	126.66425297618844	[['a', 125.86679091816768]]	-2.0	unseen	True	True	2.1767909181676828	2.980322667164728	1.0	27.0	1362971.7846	True	_condition:seen_subcondition:seen-between_repetition:2_error:True	True	28.0	0.0	1440.0
3	ses-025	29	images_fmri/hula_hoop/hula_hoop_04s.jpg	seen	3892	325	4	None	811.0	11597.0	4.0	seen-between-within-between	4	5	128.16	2.98	True	False	128.1660493661184	131.1328434459865	[['a', 129.24273475212976]]	-2.0	unseen	True	True	1.0827347521297668	2.966794079868123	1.0	28.0	1362976.2667	True	_subcondition:seen-between-within-between_repetition:4	True	7.0	0.0	400.0
3	ses-025	30	images_fmri/missile/missile_04s.jpg	seen	4816	402	4	None	1007.0	14347.0	4.0	seen-within-between-between-within	5	5	132.63	2.98	True	False	132.63342622108755	135.60134369810112	[['x', 133.4394714080263]]	2.0	seen	False	True	0.8094714080262975	2.9679174770135432	1.0	29.0	1362980.7341	True	_subcondition:seen-within-between-between-within_repetition:5	True	0.0	80.46310000005178	18.0
3	ses-025	31	images_fmri/thumbtack/thumbtack_04s.jpg	seen	7684	641	4	None	1655.0	23366.0	4.0	seen-between-within-between	4	5	137.1	2.98	False	True	137.10063429619186	140.08048893301748	[['a', 139.1606620911043]]	1.0	seen	False	False	2.0606620911043194	2.979854636825621	1.0	30.0	1362985.2013	True	_subcondition:seen-between-within-between_repetition:4	True	7.0	0.0	377.0
3	ses-025	32	images_fmri/scone/scone_05s.jpg	seen	6521	544	5	None	1381.0	19613.0	5.0	seen-between	2	5	141.57	2.98	False	False	141.56830780417658	144.5479455171153	[['y', 144.0914521100931]]	-2.0	unseen	True	True	2.521452110093094	2.979637712938711	1.0	31.0	1362989.669	True	_condition:seen_subcondition:seen-between_repetition:2_error:True	True	28.0	0.0	1440.0
3	ses-025	33	images_fmri/girl/girl_05s.jpg	seen	3257	272	5	None	677.0	9699.0	5.0	seen-within-between-within	4	5	146.04	2.98	False	True	146.03384793899022	149.01812120410614	[['b', 146.99420344899409]]	2.0	seen	False	True	0.9542034489940932	2.9842732651159167	1.0	32.0	1362994.1345	True	_subcondition:seen-within-between-within_repetition:4	True	0.0	1143.656500000041	181.0
3	ses-025	34	images_fmri/blackberry/blackberry_05s.jpg	seen	689	58	5	None	136.0	2080.0	5.0	seen-within-between-within	4	5	150.51	2.98	False	False	150.51798064704053	153.47975925100036	[['x', 152.92752210213803]]	2.0	seen	False	True	2.4175221021380366	2.9617786039598286	1.0	33.0	1362998.6186	True	_subcondition:seen-within-between-within_repetition:4	True	0.0	125.1648999999743	28.0
3	ses-025	35	images_fmri/raccoon/raccoon_04n.jpg	seen	6064	506	4	None	1267.0	18054.0	4.0	seen-within-between-between	4	5	154.98	2.98	True	True	154.98424725816585	157.96405766508542	[['y', 157.54948041401803]]	1.0	seen	False	False	2.569480414018045	2.9798104069195688	1.0	34.0	1363003.0849	True	_subcondition:seen-within-between-between_repetition:4	True	7.0	0.0	438.0
3	ses-025	36	images_fmri/raccoon/raccoon_04n.jpg	seen	6064	506	4	None	1267.0	18054.0	4.0	seen-within-between-between-within	5	5	159.45	2.98	False	False	159.45022989809513	162.43001173599623	[['x', 161.05620839912444]]	2.0	seen	False	True	1.606208399124455	2.9797818379011005	1.0	35.0	1363007.5509	True	_subcondition:seen-within-between-between-within_repetition:5	True	0.0	4.466000000014901	1.0
3	ses-025	37	images_fmri/gearshift/gearshift_05s.jpg	seen	3221	269	5	None	669.0	9589.0	5.0	seen-within-between	3	5	163.92	2.98	False	False	163.9164256681688	166.89733430813067	[['b', 165.5713273449801], ['y', 165.97745374310762]]	-1.0	unseen	True	False	1.6513273449801034	2.9809086399618536	1.0	36.0	1363012.0171	True	_condition:seen_subcondition:seen-within-between_repetition:3_error:True	True	28.0	0.0	1387.0
3	ses-025	38	images_fmri/rhinoceros/rhinoceros_04s.jpg	seen	6244	521	4	None	1307.0	18609.0	4.0	seen-between-within-between	4	5	168.39	2.98	False	True	168.3828606409952	171.36739133507945	[['b', 169.63534972816706]]	2.0	seen	False	True	1.245349728167071	2.984530694084242	1.0	37.0	1363016.4835	True	_subcondition:seen-between-within-between_repetition:4	True	7.0	0.0	518.0
3	ses-025	39	images_fmri/cactus/cactus_04s.jpg	seen	1216	102	4	None	236.0	3509.0	4.0	seen-within-between-between-within	5	5	172.86	2.98	True	False	172.8657267021481	175.82858129008673	[['x', 174.19227394508198]]	2.0	seen	False	True	1.3322739450819654	2.9628545879386365	1.0	38.0	1363020.9664	True	_subcondition:seen-within-between-between-within_repetition:5	True	0.0	456.3216999999713	77.0
3	ses-025	40	images_fmri/cellphone/cellphone_04s.jpg	seen	1528	128	4	None	294.0	4289.0	4.0	seen-within-between-between-within	5	5	177.32999999999996	2.98	False	True	177.3295985800214	180.3128522420302	[['b', 178.19714624108747]]	2.0	seen	False	True	0.8671462410875108	2.983253662008792	1.0	39.0	1363025.4302	True	_subcondition:seen-within-between-between-within_repetition:5	True	0.0	116.23140000016429	26.0
3	ses-025	41	images_fmri/cage/cage_04s.jpg	seen	1228	103	4	None	237.0	3521.0	4.0	seen-between-within-between	4	5	181.8	2.98	False	False	181.7995996430982	184.78012037603185	[['x', 182.82207391713746], ['y', 184.68484872113913], ['b', 185.17077978211455]]	2.0	seen	False	True	1.0220739171374476	2.9805207329336554	1.0	40.0	1363029.9002	True	_subcondition:seen-between-within-between_repetition:4	True	7.0	0.0	351.0
3	ses-025	42	images_fmri/face_mask/face_mask_04s.jpg	seen	2848	238	4	None	571.0	8259.0	4.0	seen-within-between-between	4	5	186.27	2.98	True	True	186.26183854811825	189.24615869414995	[['a', 187.45307488599792]]	-2.0	unseen	True	True	1.183074885997911	2.9843201460316777	1.0	41.0	1363034.3625	True	_subcondition:seen-within-between-between_repetition:4	True	7.0	0.0	386.0
3	ses-025	43	images_fmri/milkshake/milkshake_05s.jpg	seen	4793	400	5	None	1003.0	14285.0	5.0	seen-within-between-within	4	5	190.74	2.98	True	False	190.72951582097448	193.7169793471694	[['x', 191.6780706329737]]	2.0	seen	False	True	0.9380706329736768	2.987463526194915	1.0	42.0	1363038.8302	True	_subcondition:seen-within-between-within_repetition:4	True	0.0	134.09389999997802	30.0
3	ses-025	44	images_fmri/wooden_leg/wooden_leg_04s.jpg	seen	8560	714	4	None	1835.0	25836.0	4.0	seen-within-between-between	4	5	195.21	2.98	True	True	195.21455131401308	198.1789794140496	[['y', 197.38635402801447]]	1.0	seen	False	False	2.176354028014458	2.964428100036457	1.0	43.0	1363043.3152	True	_subcondition:seen-within-between-between_repetition:4	True	7.0	0.0	399.0
3	ses-025	45	images_fmri/kettle/kettle_05s.jpg	seen	4109	343	5	None	869.0	12430.0	5.0	seen-within-between-within	4	5	199.68	2.98	False	False	199.67815850418992	202.66260480508208	[['x', 201.35932258702815]]	2.0	seen	False	True	1.679322587028139	2.98444630089216	1.0	44.0	1363047.7788	True	_subcondition:seen-within-between-within_repetition:4	True	0.0	554.6496999999508	99.0
3	ses-025	46	images_fmri/curtain/curtain_05s.jpg	seen	2321	194	5	None	466.0	6759.0	5.0	seen-between	2	5	204.15	2.98	True	False	204.1508211321197	207.1291362431366	[['a', 206.40905944211408]]	-2.0	unseen	True	True	2.25905944211408	2.978315111016854	1.0	45.0	1363052.2515	True	_condition:seen_subcondition:seen-between_repetition:2_error:True	True	28.0	0.0	1440.0
3	ses-025	47	images_fmri/crown/crown_05n.jpg	seen	2237	187	5	None	449.0	6499.0	5.0	seen-between	2	5	208.62	2.98	True	True	208.61622251500376	211.5948398699984	[['a', 210.8212229050696]]	-2.0	unseen	True	True	2.201222905069585	2.97861735499464	1.0	46.0	1363056.7169	True	_condition:seen_subcondition:seen-between_repetition:2_error:True	True	28.0	0.0	1440.0
3	ses-025	48	images_fmri/videocassette/videocassette_04n.jpg	seen	8200	684	4	None	1762.0	24836.0	4.0	seen-within-between-between	4	5	213.09	2.98	False	False	213.0818108371459	216.0613649520092	[['y', 214.57421846711077]]	-2.0	unseen	True	True	1.4842184671107643	2.9795541148632765	1.0	47.0	1363061.1825	True	_subcondition:seen-within-between-between_repetition:4	True	7.0	0.0	326.0
3	ses-025	49	images_fmri/sim_card/sim_card_04s.jpg	seen	6784	566	4	None	1447.0	20519.0	4.0	seen-between-within-between	4	5	217.56	2.98	True	True	217.563824943034	220.52762908907607	[['b', 219.09696513507515]]	2.0	seen	False	True	1.5369651350751496	2.9638041460420936	1.0	48.0	1363065.6645	True	_subcondition:seen-between-within-between_repetition:4	True	7.0	0.0	616.0
3	ses-025	50	images_fmri/tie/tie_04s.jpg	seen	7708	643	4	None	1659.0	23417.0	4.0	seen-within-between-between-within	5	5	222.03	2.98	True	False	222.0282854451798	225.0143387361896	[['x', 223.23794750217348]]	2.0	seen	False	True	1.2079475021734822	2.986053291009739	1.0	49.0	1363070.1289	True	_subcondition:seen-within-between-between-within_repetition:5	True	0.0	541.2503999997862	96.0
3	ses-025	51	images_fmri/chin/chin_04s.jpg	seen	1696	142	4	None	331.0	4785.0	4.0	seen-within-between-between-within	5	5	226.5	2.98	True	True	226.4990642929916	229.48169245012105	[['a', 227.41486805910245]]	-2.0	unseen	True	True	0.9148680591024458	2.9826281571295112	1.0	50.0	1363074.5997	True	_subcondition:seen-within-between-between-within_repetition:5	True	0.0	416.09210000000894	68.0
3	ses-025	52	images_fmri/leek/leek_04s.jpg	seen	4288	358	4	None	911.0	13026.0	4.0	seen-within-between-between-within	5	5	230.97	2.98	True	False	230.96562370308675	233.9466035370715	[['x', 231.93410828802735]]	2.0	seen	False	True	0.9641082880273472	2.9809798339847475	1.0	51.0	1363079.0663	True	_subcondition:seen-within-between-between-within_repetition:5	True	0.0	1573.878200000152	251.0
3	ses-025	53	images_fmri/cinnamon/cinnamon_05s.jpg	seen	1769	148	5	None	349.0	5051.0	5.0	seen-between	2	5	235.44	2.98	False	True	235.43232719716616	238.4104529870674	[['y', 236.72909385617822]]	-2.0	unseen	True	True	1.2890938561782264	2.9781257899012417	1.0	52.0	1363083.533	True	_condition:seen_subcondition:seen-between_repetition:2_error:True	True	28.0	0.0	1440.0
3	ses-025	54	images_fmri/thermostat/thermostat_05s.jpg	seen	7661	639	5	None	1649.0	23286.0	5.0	seen-within-between-within	4	5	239.91	2.98	True	False	239.91562100406736	242.88181806914508	[['x', 240.8258693299722]]	2.0	seen	False	True	0.915869329972196	2.966197065077722	1.0	53.0	1363088.0163	True	_subcondition:seen-within-between-within_repetition:4	True	0.0	1640.9484000001105	266.0
3	ses-025	55	images_fmri/jellyfish/jellyfish_05s.jpg	seen	4013	335	5	None	846.0	12095.0	5.0	seen-within-between	3	5	244.38	2.98	True	True	244.38117313408293	247.3615722311661	[['a', 245.6677099200897]]	-2.0	unseen	True	True	1.2877099200896964	2.9803990970831364	1.0	54.0	1363092.4818	True	_condition:seen_subcondition:seen-within-between_repetition:3_error:True	True	28.0	0.0	1414.0
3	ses-025	56	images_fmri/poster/poster_04s.jpg	seen	5872	490	4	None	1230.0	17493.0	4.0	seen-within-between-between-within	5	5	248.85	2.98	True	False	248.84814511006692	251.8327642760705	[['x', 249.9980667741038]]	2.0	seen	False	True	1.1480667741037962	2.98461916600354	1.0	55.0	1363096.9488	True	_subcondition:seen-within-between-between-within_repetition:5	True	0.0	416.090099999914	68.0
3	ses-025	57	images_fmri/face_mask/face_mask_04s.jpg	seen	2848	238	4	None	571.0	8259.0	4.0	seen-within-between-between-within	5	5	253.32	2.98	False	True	253.31474193604663	256.2947576569859	[['y', 255.21453765104525], ['b', 255.62416546512395]]	-2.0	unseen	True	True	1.8945376510452547	2.980015720939264	1.0	56.0	1363101.4154	True	_subcondition:seen-within-between-between-within_repetition:5	True	0.0	67.05290000000969	15.0
3	ses-025	58	images_fmri/okra/okra_04s.jpg	seen	5152	430	4	None	1075.0	15284.0	4.0	seen-within-between-between-within	5	5	257.79	2.98	True	False	257.7969807400368	260.7598741031252	[['x', 259.29151274310425]]	2.0	seen	False	True	1.5015127431042288	2.9628933630883694	1.0	57.0	1363105.8976	True	_subcondition:seen-within-between-between-within_repetition:5	True	0.0	1734.810300000012	287.0
3	ses-025	59	images_fmri/milk/milk_05s.jpg	seen	4781	399	5	None	1002.0	14264.0	5.0	seen-between	2	5	262.26	2.98	True	True	262.2633464571554	265.2448917280417	[['a', 263.9643039831426]]	-2.0	unseen	True	True	1.7043039831426086	2.981545270886272	1.0	58.0	1363110.364	True	_condition:seen_subcondition:seen-between_repetition:2_error:True	True	28.0	0.0	1440.0
3	ses-025	60	images_fmri/steak/steak_05s.jpg	seen	7205	601	5	None	1545.0	21828.0	5.0	seen-within-between-within	4	5	266.73	2.98	False	False	266.73053729115054	269.7102431990206	[['x', 267.8174327611923]]	2.0	seen	False	True	1.0874327611923036	2.979705907870084	1.0	59.0	1363114.8312	True	_subcondition:seen-within-between-within_repetition:4	True	0.0	797.8967999999877	130.0
