subject	session	TrialNumber	image_path	condition	image_nr	category_nr	exemplar_nr	test_image_nr	things_category_nr	things_image_nr	things_exemplar_nr	subcondition	repetition	run	onset	duration	response_mapping_flip_h	response_mapping_flip_v	onset_flip	offset_flip	keypresses	response	response_txt	error	response_confidence	response_time	duration_flip	ran	order	session_trial_time	atypical	atypical_log	exclude_session	delay_days	delay_seconds	trials_since_lastrep
3	ses-025	1	images_fmri/crystal1/crystal1_04s.jpg	seen	2260	189	4	None	455.0	6572.0	4.0	seen-within-between-between	4	2	3.0	2.98	True	False	3.003758203005418	5.986420574830845	[['a', 4.029308049939573]]	-2.0	unseen	True	True	1.0293080499395728	2.982662371825427	1.0	0.0	1361711.9149	True	_subcondition:seen-within-between-between_repetition:4	True	7.0	0.0	324.0
3	ses-025	2	images_fmri/brownie/brownie_05s.jpg	seen	1037	87	5	None	205.0	3090.0	5.0	seen-within-between-within	4	2	7.47	2.98	True	False	7.467034835834056	10.453882376896216	[['x', 8.281995901837945]]	2.0	seen	False	True	0.8119959018379452	2.9868475410621613	1.0	1.0	1361716.3782	True	_subcondition:seen-within-between-within_repetition:4	True	0.0	381.0574999998789	59.0
3	ses-025	3	images_fmri/mushroom/mushroom_04n.jpg	seen	4984	416	4	None	1041.0	14829.0	4.0	seen-between-within-between	4	2	11.94	2.98	False	True	11.937201057793573	14.918774307938293	[['b', 13.6820563969668]]	2.0	seen	False	True	1.7420563969668006	2.98157325014472	1.0	2.0	1361720.8483	True	_subcondition:seen-between-within-between_repetition:4	True	7.0	0.0	337.0
3	ses-025	4	images_fmri/koala/koala_05s.jpg	seen	4181	349	5	None	885.0	12670.0	5.0	seen-between	2	2	16.41	2.98	False	False	16.40149397496134	19.382863676873967	[['b', 18.148085336899385]]	-1.0	unseen	True	False	1.7380853368993847	2.981369701912626	1.0	3.0	1361725.3126	True	_condition:seen_subcondition:seen-between_repetition:2_error:True	True	28.0	0.0	1440.0
3	ses-025	5	images_fmri/crate/crate_04s.jpg	seen	2140	179	4	None	434.0	6269.0	4.0	seen-between-within-between	4	2	20.88	2.98	False	False	20.88622455089353	23.84911697590724	[['b', 23.174707162892446], ['a', 23.917657161829993], ['b', 24.582012112019584]]	-1.0	unseen	True	False	2.294707162892447	2.962892425013706	1.0	4.0	1361729.7974	True	_subcondition:seen-between-within-between_repetition:4	True	7.0	0.0	69.0
3	ses-025	6	images_fmri/blind/blind_05s.jpg	seen	749	63	5	None	141.0	2145.0	5.0	seen-between	2	2	25.35	2.98	False	True	25.35104159801267	28.33415673696436	[['y', 27.00788185885176]]	-2.0	unseen	True	True	1.6578818588517592	2.983115138951689	1.0	5.0	1361734.2622	True	_condition:seen_subcondition:seen-between_repetition:2_error:True	True	28.0	0.0	1440.0
3	ses-025	7	images_fmri/drawer/drawer_04s.jpg	seen	2584	216	4	None	517.0	7504.0	4.0	seen-within-between-between-within	5	2	29.82	2.98	True	False	29.819997406797484	32.802539648953825	[['x', 30.695741769857705]]	2.0	seen	False	True	0.8757417698577044	2.9825422421563417	1.0	6.0	1361738.7311	True	_subcondition:seen-within-between-between-within_repetition:5	True	0.0	354.24340000003576	53.0
3	ses-025	8	images_fmri/snowboard/snowboard_04s.jpg	seen	6916	577	4	None	1482.0	20993.0	4.0	seen-within-between-between	4	2	34.29	2.98	False	True	34.28356319689192	37.26648354087956	[['x', 35.955526287900284], ['a', 37.4758325999137]]	-1.0	unseen	True	False	1.6655262879002848	2.982920343987644	1.0	7.0	1361743.1947	True	_subcondition:seen-within-between-between_repetition:4	True	7.0	0.0	272.0
3	ses-025	9	images_fmri/lime/lime_04s.jpg	seen	4396	367	4	None	931.0	13294.0	4.0	seen-within-between-between	4	2	38.76	2.98	False	False	38.74878845782951	41.73215038096532	[['y', 40.56884293095209]]	-2.0	unseen	True	True	1.808842930952089	2.983361923135817	1.0	8.0	1361747.6599	True	_subcondition:seen-within-between-between_repetition:4	True	7.0	0.0	274.0
3	ses-025	10	images_fmri/flyswatter/flyswatter_04s.jpg	seen	3040	254	4	None	624.0	9005.0	4.0	seen-between-within-between	4	2	43.23	2.98	True	False	43.23561559594236	46.19845132296905	[['y', 45.64558498188853]]	1.0	seen	False	False	2.415584981888536	2.962835727026686	1.0	9.0	1361752.1468	True	_subcondition:seen-between-within-between_repetition:4	True	7.0	0.0	404.0
3	ses-025	11	images_fmri/tag/tag_05s.jpg	seen	7529	628	5	None	1617.0	22830.0	5.0	seen-between	2	2	47.7	2.98	False	False	47.69939438183792	50.68329067179002	[['b', 49.98017642693594]]	-1.0	unseen	True	False	2.280176426935938	2.9838962899521	1.0	10.0	1361756.6105	True	_condition:seen_subcondition:seen-between_repetition:2_error:True	True	28.0	0.0	1440.0
3	ses-025	12	images_fmri/warthog/warthog_05s.jpg	seen	8333	695	5	None	1782.0	25120.0	5.0	seen-within-between-within	4	2	52.17	2.98	True	False	52.17008448485285	55.15128801879473	[['x', 53.23859130591154]]	2.0	seen	False	True	1.0685913059115393	2.98120353394188	1.0	11.0	1361761.0812	True	_subcondition:seen-within-between-within_repetition:4	True	0.0	407.8739999998361	65.0
3	ses-025	13	images_fmri/submarine/submarine_04s.jpg	seen	7312	610	4	None	1578.0	22283.0	4.0	seen-between-within-between	4	2	56.64	2.98	False	True	56.63560776482336	59.615856379969046	[['y', 58.326699799858034]]	-2.0	unseen	True	True	1.686699799858033	2.980248615145684	1.0	12.0	1361765.5468	True	_subcondition:seen-between-within-between_repetition:4	True	7.0	0.0	142.0
3	ses-025	14	images_fmri/lime/lime_04s.jpg	seen	4396	367	4	None	931.0	13294.0	4.0	seen-within-between-between-within	5	2	61.11	2.98	False	False	61.10224888497032	64.08285125694238	[['x', 62.05852663796395]]	2.0	seen	False	True	0.9485266379639512	2.9806023719720542	1.0	13.0	1361770.0134	True	_subcondition:seen-within-between-between-within_repetition:5	True	0.0	22.35349999996833	5.0
3	ses-025	15	images_fmri/walker1/walker1_04s.jpg	seen	8248	688	4	None	1774.0	25010.0	4.0	seen-within-between-between-within	5	2	65.58	2.98	True	True	65.58246410801075	68.55273749982007	[['b', 66.57661780901253]]	2.0	seen	False	True	0.996617809012534	2.9702733918093145	1.0	14.0	1361774.4936	True	_subcondition:seen-within-between-between-within_repetition:5	True	0.0	255.8935000000056	31.0
3	ses-025	16	images_fmri/dog/dog_04s.jpg	seen	2452	205	4	None	496.0	7167.0	4.0	seen-within-between-between-within	5	2	70.05	2.98	False	True	70.0489033269696	73.03546836599708	[['b', 71.02960213995539]]	2.0	seen	False	True	0.9796021399553894	2.9865650390274823	1.0	15.0	1361778.96	True	_subcondition:seen-within-between-between-within_repetition:5	True	0.0	255.8926999999676	31.0
3	ses-025	17	images_fmri/rat/rat_05s.jpg	seen	6149	513	5	None	1286.0	18305.0	5.0	seen-within-between	3	2	74.52	2.98	False	True	74.51936178188771	77.49898488284089	[['y', 76.56847040983848]]	-2.0	unseen	True	True	2.0484704098384867	2.9796231009531766	1.0	16.0	1361783.4305	True	_condition:seen_subcondition:seen-within-between_repetition:3_error:True	True	28.0	0.0	1359.0
3	ses-025	18	images_fmri/leopard/leopard_04s.jpg	seen	4348	363	4	None	918.0	13123.0	4.0	seen-between-within-between	4	2	78.99	2.98	False	True	78.9867467340082	81.9658510799054	[['x', 81.37176900892518]]	-1.0	unseen	True	False	2.3817690089251897	2.9791043458972126	1.0	17.0	1361787.8979	True	_subcondition:seen-between-within-between_repetition:4	True	7.0	0.0	189.0
3	ses-025	19	images_fmri/ping-pong_table/ping-pong_table_05s.jpg	seen	5633	470	5	None	1185.0	16857.0	5.0	seen-within-between	3	2	83.46	2.98	True	False	83.4531683549285	86.43202573992312	[['b', 85.11178795201704]]	-1.0	unseen	True	False	1.651787952017045	2.978857384994626	1.0	18.0	1361792.3643	True	_condition:seen_subcondition:seen-within-between_repetition:3_error:True	True	28.0	0.0	1309.0
3	ses-025	20	images_fmri/wand/wand_05n.jpg	seen	8321	694	5	None	1781.0	25108.0	5.0	seen-within-between	3	2	87.92999999999998	2.98	True	True	87.93481582286768	90.89740899787284	[['a', 89.30551999481395]]	-2.0	unseen	True	True	1.3755199948139705	2.962593175005168	1.0	19.0	1361796.846	True	_condition:seen_subcondition:seen-within-between_repetition:3_error:True	True	28.0	0.0	1412.0
3	ses-025	21	images_fmri/kimono/kimono_05s.jpg	seen	4133	345	5	None	874.0	12511.0	5.0	seen-within-between	3	2	92.4	2.98	True	False	92.40306317596696	95.38285843399352	[['b', 94.08349895384163], ['a', 95.27502096397802]]	-1.0	unseen	True	False	1.683498953841621	2.97979525802657	1.0	20.0	1361801.3142	True	_condition:seen_subcondition:seen-within-between_repetition:3_error:True	True	28.0	0.0	1317.0
3	ses-025	22	images_fmri/dresser/dresser_04s.jpg	seen	2608	218	4	None	520.0	7543.0	4.0	seen-between-within-between	4	2	96.87	2.98	False	False	96.86489686788993	99.84739720681682	[['b', 98.46132633090019], ['a', 99.60008602985181]]	-1.0	unseen	True	False	1.5913263309001875	2.982500338926912	1.0	21.0	1361805.776	True	_subcondition:seen-between-within-between_repetition:4	True	7.0	0.0	178.0
3	ses-025	23	images_fmri/otter/otter_05s.jpg	seen	5189	433	5	None	1086.0	15457.0	5.0	seen-between	2	2	101.34	2.98	False	True	101.3304360138718	104.3137760499958	[['y', 103.12749943998642]]	-2.0	unseen	True	True	1.7874994399864192	2.983340036123991	1.0	22.0	1361810.2416	True	_condition:seen_subcondition:seen-between_repetition:2_error:True	True	28.0	0.0	1440.0
3	ses-025	24	images_fmri/drill/drill_04s.jpg	seen	2620	219	4	None	521.0	7562.0	4.0	seen-within-between-between	4	2	105.81	2.98	True	True	105.8022361858748	108.78124647401272	[['a', 107.34722316381522]]	-2.0	unseen	True	True	1.537223163815213	2.9790102881379426	1.0	23.0	1361814.7134	True	_subcondition:seen-within-between-between_repetition:4	True	7.0	0.0	104.0
3	ses-025	25	images_fmri/crystal1/crystal1_04s.jpg	seen	2260	189	4	None	455.0	6572.0	4.0	seen-within-between-between-within	5	2	110.28	2.98	False	True	110.28393468586728	113.2475963528268	[['a', 112.30809414898977]]	1.0	seen	False	False	2.0280941489897657	2.963661666959524	1.0	24.0	1361819.1951	True	_subcondition:seen-within-between-between-within_repetition:5	True	0.0	107.28019999992102	24.0
3	ses-025	26	images_fmri/suspenders/suspenders_04s.jpg	seen	7396	617	4	None	1590.0	22457.0	4.0	seen-between-within-between	4	2	114.75	2.98	True	False	114.75088053499348	117.73160964180715	[['y', 116.66734064184129]]	1.0	seen	False	False	1.9173406418412924	2.980729106813669	1.0	25.0	1361823.662	True	_subcondition:seen-between-within-between_repetition:4	True	7.0	0.0	111.0
3	ses-025	27	images_fmri/couch/couch_04s.jpg	seen	2080	174	4	None	423.0	6080.0	4.0	seen-within-between-between	4	2	119.22	2.98	True	False	119.21796160796656	122.19968487881124	[['a', 120.32407135795802]]	-2.0	unseen	True	True	1.10407135795802	2.981723270844668	1.0	26.0	1361828.1291	True	_subcondition:seen-within-between-between_repetition:4	True	7.0	0.0	300.0
3	ses-025	28	images_fmri/rattle/rattle_04s.jpg	seen	6160	514	4	None	1288.0	18329.0	4.0	seen-within-between-between	4	2	123.69	2.98	False	True	123.68455446697772	126.66454014182092	[['y', 125.46251230593771], ['x', 126.03027009987272], ['a', 126.32407092000358]]	-2.0	unseen	True	True	1.7725123059377097	2.979985674843192	1.0	27.0	1361832.5957	True	_subcondition:seen-within-between-between_repetition:4	True	7.0	0.0	206.0
3	ses-025	29	images_fmri/sock/sock_04s.jpg	seen	6940	579	4	None	1490.0	21091.0	4.0	seen-between-within-between	4	2	128.16	2.98	False	True	128.1687629809603	131.13095688191245	[['a', 129.64010935788974]]	1.0	seen	False	False	1.480109357889745	2.962193900952116	1.0	28.0	1361837.0799	True	_subcondition:seen-between-within-between_repetition:4	True	7.0	0.0	184.0
3	ses-025	30	images_fmri/toilet_paper/toilet_paper_05s.jpg	seen	7781	649	5	None	1672.0	23598.0	5.0	seen-within-between-within	4	2	132.63	2.98	False	False	132.63153984281234	135.6022376329638	[['x', 133.58393710386008]]	2.0	seen	False	True	0.9539371038600848	2.970697790151462	1.0	29.0	1361841.5427	True	_subcondition:seen-within-between-within_repetition:4	True	0.0	354.23830000008456	53.0
3	ses-025	31	images_fmri/omelet/omelet_04n.jpg	seen	5164	431	4	None	1077.0	15311.0	4.0	seen-between-within-between	4	2	137.1	2.98	True	False	137.10044492594898	140.0813613620121	[['a', 138.35759059200063]]	-2.0	unseen	True	True	1.2575905920006392	2.9809164360631257	1.0	30.0	1361846.0116	True	_subcondition:seen-between-within-between_repetition:4	True	7.0	0.0	224.0
3	ses-025	32	images_fmri/girl/girl_05s.jpg	seen	3257	272	5	None	677.0	9699.0	5.0	seen-within-between	3	2	141.57	2.98	False	False	141.5668349720072	144.54719677381215	[['y', 143.63051778799854]]	-2.0	unseen	True	True	2.060517787998549	2.9803618018049747	1.0	31.0	1361850.478	True	_condition:seen_subcondition:seen-within-between_repetition:3_error:True	True	28.0	0.0	1259.0
3	ses-025	33	images_fmri/hairbrush/hairbrush_05s.jpg	seen	3557	297	5	None	735.0	10540.0	5.0	seen-within-between	3	2	146.04	2.98	False	False	146.03517866088075	149.01808944391087	[['y', 147.18023792584427]]	-2.0	unseen	True	True	1.140237925844275	2.9829107830300927	1.0	32.0	1361854.9463	True	_condition:seen_subcondition:seen-within-between_repetition:3_error:True	True	28.0	0.0	1431.0
3	ses-025	34	images_fmri/polaroid/polaroid_04s.jpg	seen	5788	483	4	None	1213.0	17244.0	4.0	seen-between-within-between	4	2	150.51	2.98	True	False	150.5162146058865	153.48041055584326	[['y', 152.14207942201756], ['x', 152.52828495693393]]	1.0	seen	False	False	1.6320794220175685	2.9641959499567747	1.0	33.0	1361859.4274	True	_subcondition:seen-between-within-between_repetition:4	True	7.0	0.0	290.0
3	ses-025	35	images_fmri/headphones/headphones_05s.jpg	seen	3701	309	5	None	767.0	10985.0	5.0	seen-between	2	2	154.98	2.98	True	True	154.98308042692952	157.96440999489278	[['a', 156.4291077000089]]	-2.0	unseen	True	True	1.4491077000089092	2.981329567963257	1.0	34.0	1361863.8942	True	_condition:seen_subcondition:seen-between_repetition:2_error:True	True	28.0	0.0	1440.0
3	ses-025	36	images_fmri/applesauce/applesauce_05s.jpg	seen	197	17	5	None	33.0	462.0	5.0	seen-between	2	2	159.45	2.98	False	True	159.44997625797987	162.43069875100628	[['y', 160.8739040128421]]	-2.0	unseen	True	True	1.4239040128421152	2.9807224930264056	1.0	35.0	1361868.3611	True	_condition:seen_subcondition:seen-between_repetition:2_error:True	True	28.0	0.0	1440.0
3	ses-025	37	images_fmri/clarinet/clarinet_05n.jpg	seen	1781	149	5	None	351.0	5079.0	5.0	seen-within-between	3	2	163.92	2.98	False	True	163.9132829888258	166.89568588882685	[['y', 165.42182723688893]]	-2.0	unseen	True	True	1.5018272368889427	2.982402900001034	1.0	36.0	1361872.8244	True	_condition:seen_subcondition:seen-within-between_repetition:3_error:True	True	28.0	0.0	1312.0
3	ses-025	38	images_fmri/blimp/blimp_04n.jpg	seen	736	62	4	None	140.0	2132.0	4.0	seen-between-within-between	4	2	168.39	2.98	True	False	168.38351540197618	171.36326378490776	[['a', 169.64193234895356]]	-2.0	unseen	True	True	1.2519323489535736	2.979748382931575	1.0	37.0	1361877.2947	True	_subcondition:seen-between-within-between_repetition:4	True	7.0	0.0	176.0
3	ses-025	39	images_fmri/battery/battery_05n.jpg	seen	449	38	5	None	98.0	1473.0	5.0	seen-within-between	3	2	172.86	2.98	True	True	172.8659861239139	175.8348630948458	[['a', 173.9256852318067]]	-2.0	unseen	True	True	1.0656852318066967	2.968876970931888	1.0	38.0	1361881.7771	True	_condition:seen_subcondition:seen-within-between_repetition:3_error:True	True	28.0	0.0	1419.0
3	ses-025	40	images_fmri/egg/egg_04s.jpg	seen	2704	226	4	None	547.0	7938.0	4.0	seen-within-between-between	4	2	177.32999999999996	2.98	True	True	177.33183401287533	180.3148206579499	[['y', 179.6029826218728]]	1.0	seen	False	False	2.272982621872842	2.982986645074561	1.0	39.0	1361886.243	True	_subcondition:seen-within-between-between_repetition:4	True	7.0	0.0	141.0
3	ses-025	41	images_fmri/bowl/bowl_05s.jpg	seen	893	75	5	None	178.0	2706.0	5.0	seen-between	2	2	181.8	2.98	False	False	181.8012838237919	184.77984305494465	[['y', 183.1500973647926]]	-2.0	unseen	True	True	1.350097364792589	2.978559231152758	1.0	40.0	1361890.7124	True	_condition:seen_subcondition:seen-between_repetition:2_error:True	True	28.0	0.0	1440.0
3	ses-025	42	images_fmri/hairbrush/hairbrush_05s.jpg	seen	3557	297	5	None	735.0	10540.0	5.0	seen-within-between-within	4	2	186.27	2.98	True	True	186.2667849729769	189.2504844728392	[['b', 187.44209899799898]]	2.0	seen	False	True	1.1720989979989724	2.983699499862269	1.0	41.0	1361895.1779	True	_subcondition:seen-within-between-within_repetition:4	True	0.0	40.23160000005737	9.0
3	ses-025	43	images_fmri/avocado/avocado_05s.jpg	seen	245	21	5	None	44.0	608.0	5.0	seen-within-between	3	2	190.74	2.98	True	True	190.73245230480097	193.7167480927892	[['a', 191.83871841686778]]	-2.0	unseen	True	True	1.0987184168677686	2.9842957879882306	1.0	42.0	1361899.6436	True	_condition:seen_subcondition:seen-within-between_repetition:3_error:True	True	28.0	0.0	1424.0
3	ses-025	44	images_fmri/drill/drill_04s.jpg	seen	2620	219	4	None	521.0	7562.0	4.0	seen-within-between-between-within	5	2	195.21	2.98	True	False	195.2145256558433	198.1828015209176	[['x', 196.0978936299216]]	2.0	seen	False	True	0.8878936299215923	2.968275865074247	1.0	43.0	1361904.1257	True	_subcondition:seen-within-between-between-within_repetition:5	True	0.0	89.41229999996722	20.0
3	ses-025	45	images_fmri/llama/llama_05s.jpg	seen	4469	373	5	None	939.0	13409.0	5.0	seen-within-between	3	2	199.68	2.98	False	True	199.6791720748879	202.66280218982132	[['y', 201.36179282679223]]	-2.0	unseen	True	True	1.6817928267922184	2.983630114933476	1.0	44.0	1361908.5903	True	_condition:seen_subcondition:seen-within-between_repetition:3_error:True	True	28.0	0.0	1432.0
3	ses-025	46	images_fmri/penguin/penguin_04s.jpg	seen	5488	458	4	None	1146.0	16297.0	4.0	seen-within-between-between	4	2	204.15	2.98	True	True	204.14998482400551	207.12855022400612	[['a', 205.5529567960184]]	-2.0	unseen	True	True	1.402956796018401	2.9785654000006616	1.0	45.0	1361913.0611	True	_subcondition:seen-within-between-between_repetition:4	True	7.0	0.0	252.0
3	ses-025	47	images_fmri/onion/onion_05s.jpg	seen	5177	432	5	None	1078.0	15330.0	5.0	seen-between	2	2	208.62	2.98	False	True	208.6170575658325	211.6002168569248	[['y', 209.67233311082236]]	-2.0	unseen	True	True	1.05233311082236	2.9831592910923064	1.0	46.0	1361917.5282	True	_condition:seen_subcondition:seen-between_repetition:2_error:True	True	28.0	0.0	1440.0
3	ses-025	48	images_fmri/wand/wand_05n.jpg	seen	8321	694	5	None	1781.0	25108.0	5.0	seen-within-between-within	4	2	213.09	2.98	True	False	213.0807285078336	216.06525728991247	[['x', 213.9479789128527]]	2.0	seen	False	True	0.8579789128527011	2.9845287820789963	1.0	47.0	1361921.9919	True	_subcondition:seen-within-between-within_repetition:4	True	0.0	125.14590000011958	28.0
3	ses-025	49	images_fmri/vase/vase_04s.jpg	seen	8176	682	4	None	1754.0	24714.0	4.0	seen-between-within-between	4	2	217.56	2.98	False	True	217.5648058350198	220.52963499282487	[['y', 219.14284326392226]]	-2.0	unseen	True	True	1.582843263922257	2.9648291578050703	1.0	48.0	1361926.4759	True	_subcondition:seen-between-within-between_repetition:4	True	7.0	0.0	136.0
3	ses-025	50	images_fmri/toast/toast_05s.jpg	seen	7745	646	5	None	1666.0	23517.0	5.0	seen-within-between	3	2	222.03	2.98	True	False	222.03317729686387	225.01209376985207	[['a', 224.4037309079431]]	-2.0	unseen	True	True	2.3737309079430986	2.978916472988203	1.0	49.0	1361930.9443	True	_condition:seen_subcondition:seen-within-between_repetition:3_error:True	True	28.0	0.0	1416.0
3	ses-025	51	images_fmri/revolver/revolver_04s.jpg	seen	6232	520	4	None	1305.0	18577.0	4.0	seen-within-between-between-within	5	2	226.5	2.98	False	False	226.4981299450156	229.48179230792448	[['x', 227.36861890694126]]	2.0	seen	False	True	0.8686189069412649	2.9836623629089445	1.0	50.0	1361935.4093	True	_subcondition:seen-within-between-between-within_repetition:5	True	0.0	385.52209999994375	60.0
3	ses-025	52	images_fmri/snowboard/snowboard_04s.jpg	seen	6916	577	4	None	1482.0	20993.0	4.0	seen-within-between-between-within	5	2	230.97	2.98	True	False	230.96633880981244	233.94859223789533	[['x', 231.74872710579075]]	2.0	seen	False	True	0.7787271057907503	2.982253428082913	1.0	51.0	1361939.8775	True	_subcondition:seen-within-between-between-within_repetition:5	True	0.0	196.68279999983497	44.0
3	ses-025	53	images_fmri/llama/llama_05s.jpg	seen	4469	373	5	None	939.0	13409.0	5.0	seen-within-between-within	4	2	235.44	2.98	False	True	235.43284411495551	238.41472357697785	[['b', 236.46266793599352]]	2.0	seen	False	True	1.022667935993525	2.9818794620223343	1.0	52.0	1361944.344	True	_subcondition:seen-within-between-within_repetition:4	True	0.0	35.75370000000112	8.0
3	ses-025	54	images_fmri/marijuana/marijuana_04s.jpg	seen	4636	387	4	None	975.0	13898.0	4.0	seen-within-between-between	4	2	239.91	2.98	False	True	239.91616124496795	242.87712746695613	[['x', 242.06475005298853], ['y', 242.4765105219558]]	-1.0	unseen	True	False	2.1547500529885326	2.960966221988201	1.0	53.0	1361948.8273	True	_subcondition:seen-within-between-between_repetition:4	True	7.0	0.0	321.0
3	ses-025	55	images_fmri/mitten/mitten_04s.jpg	seen	4840	404	4	None	1009.0	14381.0	4.0	seen-within-between-between	4	2	244.38	2.98	False	False	244.38281683600508	247.36154306097887	[['y', 245.82699838280678], ['b', 247.5988088049926]]	-2.0	unseen	True	True	1.4469983828067825	2.978726224973798	1.0	54.0	1361953.294	True	_subcondition:seen-within-between-between_repetition:4	True	7.0	0.0	333.0
3	ses-025	56	images_fmri/desk/desk_04s.jpg	seen	2380	199	4	None	481.0	6954.0	4.0	seen-within-between-between	4	2	248.85	2.98	True	True	248.84545022179373	251.8287189328112	[['a', 251.31165820080787]]	-2.0	unseen	True	True	2.461658200807875	2.9832687110174447	1.0	55.0	1361957.7566	True	_subcondition:seen-within-between-between_repetition:4	True	7.0	0.0	267.0
3	ses-025	57	images_fmri/ring/ring_05s.jpg	seen	6305	526	5	None	1314.0	18701.0	5.0	seen-within-between	3	2	253.32	2.98	True	False	253.3128441858571	256.295094095869	[['a', 254.44641747279093]]	-2.0	unseen	True	True	1.1264174727909335	2.982249910011888	1.0	56.0	1361962.224	True	_condition:seen_subcondition:seen-within-between_repetition:3_error:True	True	28.0	0.0	1436.0
3	ses-025	58	images_fmri/christmas_tree/christmas_tree_04s.jpg	seen	1756	147	4	None	342.0	4936.0	4.0	seen-within-between-between	4	2	257.79	2.98	True	True	257.7808838789352	260.76164467982017	[['y', 259.65873881592415], ['b', 260.15750773996115], ['b', 261.1029975388665]]	1.0	seen	False	False	1.8687388159241325	2.9807608008850366	1.0	57.0	1361966.692	True	_subcondition:seen-within-between-between_repetition:4	True	7.0	0.0	163.0
3	ses-025	59	images_fmri/avocado/avocado_05s.jpg	seen	245	21	5	None	44.0	608.0	5.0	seen-within-between-within	4	2	262.26	2.98	True	True	262.2610421569552	265.246360123856	[['b', 263.47607252793387]]	2.0	seen	False	True	1.2160725279338749	2.985317966900766	1.0	58.0	1361971.1722	True	_subcondition:seen-within-between-within_repetition:4	True	0.0	71.52859999984503	16.0
3	ses-025	60	images_fmri/battery/battery_05n.jpg	seen	449	38	5	None	98.0	1473.0	5.0	seen-within-between-within	4	2	266.73	2.98	True	False	266.7280355158728	269.7119155807886	[['x', 268.07678225589916]]	2.0	seen	False	True	1.346782255899143	2.9838800649158657	1.0	59.0	1361975.6392	True	_subcondition:seen-within-between-within_repetition:4	True	0.0	93.86210000002755	21.0
