subject	session	TrialNumber	image_path	condition	image_nr	category_nr	exemplar_nr	test_image_nr	things_category_nr	things_image_nr	things_exemplar_nr	subcondition	repetition	run	onset	duration	response_mapping_flip_h	response_mapping_flip_v	onset_flip	offset_flip	keypresses	response	response_txt	error	response_confidence	response_time	duration_flip	ran	order	session_trial_time	atypical	atypical_log	exclude_session	delay_days	delay_seconds	trials_since_lastrep
01	ses-036	1	images_fmri/cardigan/cardigan_01b.jpg	seen	1417	119	1	None	274.0	4018.0	1.0	seen-between-within	3	5	3.0	2.98	False	True	2.999483469990082	5.965958171000239	[['x', 4.590343474992551]]	-1.0	unseen	True	False	1.590343474992551	2.9664747010101564	1.0	0.0	115159.3580	False		False	0.0	770.5945999999967	62.0
01	ses-036	2	images_fmri/axe/axe_01b.jpg	unseen	253	22	1	None	46.0	633.0	1.0	unseen-within	1	5	7.47	2.98	True	True	7.466398423988721	10.449279169988586							2.9828807459998643	1.0	1.0	115163.8249	False		False			
01	ses-036	3	images_fmri/strawberry/strawberry_01b.jpg	unseen	7285	608	1	None	1571.0	22182.0	1.0	unseen-between	1	5	11.94	2.98	False	False	11.93666086498706	14.918701640999643	[['b', 14.815458004988614]]	-1.0	unseen	False	False	2.875458004988614	2.9820407760125818	1.0	2.0	115168.2952	False		False			
01	ses-036	4	images_fmri/quill/quill_01b.jpg	unseen	6037	504	1	None	1264.0	18009.0	1.0	unseen-within	1	5	16.41	2.98	True	False	16.401077418995555	19.38432882798952	[['b', 18.28146304799884]]	-1.0	unseen	False	False	1.8714630479988408	2.983251408993965	1.0	3.0	115172.7596	False		False			
01	ses-036	5	images_fmri/shield/shield_01b.jpg	seen	6649	555	1	None	1421.0	20155.0	1.0	seen-within-between	3	5	20.88	2.98	False	True	20.87202584199258	23.85516007199476	[['x', 24.20564233099867]]	-1.0	unseen	True	False	3.325642330998672	2.983134230002179	1.0	4.0	115177.2305	False		False	7.0	0.0	400.0
01	ses-036	6	images_fmri/gauze/gauze_01b.jpg	seen	3205	268	1	None	665.0	9535.0	1.0	seen-between	2	5	25.35	2.98	False	False	25.351768831998925	28.32169145198713	[['b', 28.523460800992325]]	-1.0	unseen	True	False	3.1734608009923235	2.9699226199882105	1.0	5.0	115181.7103	False		False	7.0	0.0	418.0
01	ses-036	7	images_fmri/tumbleweed/tumbleweed_01b.jpg	seen	8041	671	1	None	1728.0	24353.0	1.0	seen-within	2	5	29.82	2.98	False	False	29.81749844898877	32.80246871699637	[['b', 33.35475996899186]]	-1.0	unseen	True	False	3.5347599689918567	2.9849702680076007	1.0	6.0	115186.1760	False		False	0.0	1782.8379000000132	164.0
01	ses-036	8	images_fmri/satellite_dish/satellite_dish_01b.jpg	seen	6445	538	1	None	1362.0	19360.0	1.0	seen-between-within	3	5	34.29	2.98	True	False	34.28400780798984	37.26823975499428	[['y', 36.213513947994215]]	1.0	seen	False	False	1.9235139479942165	2.984231947004446	1.0	7.0	115190.6425	False		False	0.0	571.8494000000064	40.0
01	ses-036	9	images_fmri/bell/bell_01b.jpg	unseen	577	49	1	None	117.0	1781.0	1.0	unseen-within	1	5	38.76	2.98	False	True	38.75457545099198	41.73745534299815	[['x', 42.52775867799937]]	-1.0	unseen	False	False	3.767758677999375	2.982879892006167	1.0	8.0	115195.1131	False		False			
01	ses-036	10	images_fmri/sprinkler/sprinkler_01b.jpg	unseen	7105	593	1	None	1524.0	21541.0	1.0	unseen-within	1	5	43.23	2.98	True	True	43.21700188799878	46.200381306989584	[['a', 45.28733974599163]]	-2.0	unseen	False	True	2.0573397459916336	2.983379418990808	1.0	9.0	115199.5755	False		False			
01	ses-036	11	images_fmri/chest1/chest1_01b.jpg	seen	1645	138	1	None	320.0	4641.0	1.0	seen-between-within	3	5	47.7	2.98	True	True	47.70409235698753	50.6707067899988							2.966614433011273	1.0	10.0	115204.0626	False		False	0.0	482.4744000000064	20.0
01	ses-036	12	images_fmri/anteater/anteater_01b.jpg	seen	133	12	1	None	26.0	356.0	1.0	seen-between	2	5	52.17	2.98	False	False	52.170703122988925	55.15184970998962	[['a', 55.317073395999614]]	1.0	seen	False	False	3.1470733959996124	2.981146587000694	1.0	11.0	115208.5292	False		False	7.0	0.0	545.0
01	ses-036	13	images_fmri/sloth/sloth_01b.jpg	seen	6853	572	1	None	1472.0	20851.0	1.0	seen-within	2	5	56.64	2.98	False	True	56.63331403899065	59.61674333398696	[['x', 58.93328060499334]]	-1.0	unseen	True	False	2.293280604993342	2.983429294996313	1.0	12.0	115212.9918	False		False	0.0	1043.252600000007	123.0
01	ses-036	14	images_fmri/tablecloth/tablecloth_01b.jpg	seen	7489	625	1	None	1610.0	22737.0	1.0	seen-within-between	3	5	61.11	2.98	False	True	61.10140180499002	64.08341903598921	[['x', 62.336051603997475]]	-1.0	unseen	True	False	1.226051603997476	2.9820172309991904	1.0	13.0	115217.4599	False		False	7.0	0.0	321.0
01	ses-036	15	images_fmri/banana/banana_01b.jpg	seen	349	30	1	None	64.0	948.0	1.0	seen-between-within	3	5	65.58	2.98	True	False	65.58662094498868	68.54988261699327	[['x', 67.05508983999607]]	2.0	seen	False	True	1.4750898399960732	2.963261672004592	1.0	14.0	115221.9451	False		False	0.0	705.9680999999982	70.0
01	ses-036	16	images_fmri/brace/brace_01b.jpg	seen	937	79	1	None	187.0	2826.0	1.0	seen-between	2	5	70.05	2.98	True	False	70.05359749299532	73.01630488999945	[['b', 72.26114917699306]]	-1.0	unseen	True	False	2.211149176993061	2.962707397004124	1.0	15.0	115226.4121	False		False	7.0	0.0	258.0
01	ses-036	17	images_fmri/brace/brace_01b.jpg	seen	937	79	1	None	187.0	2826.0	1.0	seen-between-within	3	5	74.52	2.98	True	False	74.51788799698988	77.49991752998903	[['b', 76.35514783998951]]	-1.0	unseen	True	False	1.8351478399895167	2.982029532999149	1.0	16.0	115230.8764	False		False	0.0	4.464299999992363	1.0
01	ses-036	18	images_fmri/toolbox/toolbox_01b.jpg	seen	7825	653	1	None	1678.0	23678.0	1.0	seen-within-between	3	5	78.99	2.98	False	False	78.98804137099069	81.97356729599414	[['a', 82.6278718879912]]	1.0	seen	False	False	3.63787188799121	2.985525925003458	1.0	17.0	115235.3465	False		False	7.0	0.0	392.0
01	ses-036	19	images_fmri/walnut/walnut_01b.jpg	seen	8293	692	1	None	1779.0	25077.0	1.0	seen-between	2	5	83.46	2.98	True	True	83.44982711499324	86.43265245699149	[['y', 84.8238605499937]]	1.0	seen	False	False	1.3638605499937029	2.9828253419982502	1.0	18.0	115239.8083	False		False	7.0	0.0	329.0
01	ses-036	20	images_fmri/meatball/meatball_01b.jpg	seen	4729	395	1	None	990.0	14096.0	1.0	seen-within-between	3	5	87.92999999999998	2.98	False	True	87.93588744598674	90.89917417199467	[['x', 90.46855225399486]]	-1.0	unseen	True	False	2.5385522539948795	2.9632867260079365	1.0	19.0	115244.2944	False		False	7.0	0.0	359.0
01	ses-036	21	images_fmri/paperclip/paperclip_01s.jpg	seen	5341	446	1	None	1117.0	15883.0	1.0	seen-between	2	5	92.4	2.98	True	True	92.4040237429872	95.38306956499582	[['x', 93.56270264698833]]	-1.0	unseen	True	False	1.162702646988322	2.9790458220086293	1.0	20.0	115248.7625	False		False	7.0	0.0	574.0
01	ses-036	22	images_fmri/chess_piece/chess_piece_01b.jpg	unseen	1633	137	1	None	318.0	4616.0	1.0	unseen-within	1	5	96.87	2.98	True	True	96.86681753899028	99.84962543699658	[['x', 98.59468486599508]]	-1.0	unseen	False	False	1.7246848659950729	2.982807898006285	1.0	21.0	115253.2253	False		False			
01	ses-036	23	images_fmri/axe/axe_01b.jpg	seen	253	22	1	None	46.0	633.0	1.0	seen-within	2	5	101.34	2.98	False	True	101.33771144298952	104.31659978198876	[['b', 103.68503566599975]]	2.0	seen	False	True	2.3450356659997453	2.9788883389992407	1.0	22.0	115257.6962	False		False	0.0	93.87129999999888	21.0
01	ses-036	24	images_fmri/blackberry/blackberry_01b.jpg	unseen	685	58	1	None	136.0	2076.0	1.0	unseen-within	1	5	105.81	2.98	False	False	105.8022725769988	108.78285143099492	[['b', 107.80958649498643]]	-1.0	unseen	False	False	1.9995864949864317	2.9805788539961213	1.0	23.0	115262.1608	False		False			
01	ses-036	25	images_fmri/sink/sink_01b.jpg	seen	6793	567	1	None	1448.0	20529.0	1.0	seen-within	2	5	110.28	2.98	False	False	110.28465535999568	113.24929522399908	[['b', 111.99206177098677]]	-1.0	unseen	True	False	1.7120617709867645	2.964639864003402	1.0	24.0	115266.6431	False		False	0.0	1079.022100000002	131.0
01	ses-036	26	images_fmri/roll/roll_01b.jpg	seen	6349	530	1	None	1324.0	18834.0	1.0	seen-between	2	5	114.75	2.98	False	False	114.75228642000002	117.73718533299687	[['b', 115.7590418849868]]	-1.0	unseen	True	False	1.0090418849868	2.9848989129968686	1.0	25.0	115271.1108	False		False	7.0	0.0	378.0
01	ses-036	27	images_fmri/cage/cage_01b.jpg	seen	1225	103	1	None	237.0	3518.0	1.0	seen-within	2	5	119.22	2.98	True	True	119.2167366979993	122.20155309099935							2.9848163930000737	1.0	26.0	115275.5752	False		False	0.0	1110.303700000004	138.0
01	ses-036	28	images_fmri/broccoli/broccoli_01b.jpg	unseen	1009	85	1	None	202.0	3048.0	1.0	unseen-between	1	5	123.69	2.98	True	True	123.68694668798707	126.66521106899016	[['x', 125.00427838799078]]	-1.0	unseen	False	False	1.3142783879907824	2.9782643810031004	1.0	27.0	115280.0454	False		False			
01	ses-036	29	images_fmri/lemon/lemon_01b.jpg	seen	4321	361	1	None	915.0	13080.0	1.0	seen-between-within	3	5	128.16	2.98	True	True	128.15272109099897	131.13174972998968	[['x', 130.15658163299668]]	-1.0	unseen	True	False	1.99658163299668	2.9790286389907124	1.0	28.0	115284.5112	False		False	0.0	773.001099999994	85.0
01	ses-036	30	images_fmri/camera1/camera1_01b.jpg	unseen	1285	108	1	None	248.0	3666.0	1.0	unseen-between	1	5	132.63	2.98	True	False	132.6351465419866	135.6012731739902	[['b', 133.90139357298904]]	-1.0	unseen	False	False	1.2713935729890409	2.9661266320035797	1.0	29.0	115288.9936	False		False			
01	ses-036	31	images_fmri/walnut/walnut_01b.jpg	seen	8293	692	1	None	1779.0	25077.0	1.0	seen-between-within	3	5	137.1	2.98	True	True	137.09933367099438	140.0815910629899	[['b', 138.11726533599722]]	2.0	seen	False	True	1.017265335997223	2.982257391995517	1.0	30.0	115293.4578	False		False	0.0	53.649499999999534	12.0
01	ses-036	32	images_fmri/eyepiece/eyepiece_01s.jpg	seen	2821	236	1	None	569.0	8232.0	1.0	seen-within	2	5	141.57	2.98	False	False	141.5697345019871	144.54881004999334	[['b', 144.25356019398896]]	-1.0	unseen	True	False	2.683560193988967	2.9790755480062217	1.0	31.0	115297.9282	False		False	0.0	746.2002999999968	79.0
01	ses-036	33	images_fmri/paper/paper_01b.jpg	unseen	5329	445	1	None	1113.0	15829.0	1.0	unseen-within	1	5	146.04	2.98	True	True	146.03215829499825	149.01887369999895							2.986715405000723	1.0	32.0	115302.3907	False		False			
01	ses-036	34	images_fmri/shirt/shirt_01s.jpg	seen	6673	557	1	None	1423.0	20180.0	1.0	seen-within	2	5	150.51	2.98	False	True	150.49772430099256	153.48663075899822							2.9889064580056584	1.0	33.0	115306.8562	False		False	0.0	976.2109999999957	108.0
01	ses-036	35	images_fmri/bear/bear_01b.jpg	unseen	493	42	1	None	106.0	1591.0	1.0	unseen-between	1	5	154.98	2.98	True	False	154.98476108499744	157.94766130999778	[['b', 157.07580161599617]]	-1.0	unseen	False	False	2.09580161599618	2.96290022500034	1.0	34.0	115311.3433	False		False			
01	ses-036	36	images_fmri/book/book_01b.jpg	unseen	841	71	1	None	166.0	2526.0	1.0	unseen-between	1	5	159.45	2.98	True	False	159.45225368099636	162.43431955399865	[['b', 162.8603741400002]]	-1.0	unseen	False	False	3.410374140000215	2.982065873002284	1.0	35.0	115315.8107	False		False			
01	ses-036	37	images_fmri/snail/snail_01b.jpg	unseen	6877	574	1	None	1477.0	20917.0	1.0	unseen-between	1	5	163.92	2.98	False	False	163.91395804799686	166.89757317499607	[['b', 165.20666507499118]]	-1.0	unseen	False	False	1.2866650749911912	2.9836151269992115	1.0	36.0	115320.2725	False		False			
01	ses-036	38	images_fmri/paper/paper_01b.jpg	seen	5329	445	1	None	1113.0	15829.0	1.0	seen-within	2	5	168.39	2.98	True	False	168.38577824199456	171.36407801299356	[['b', 170.67559781299497]]	-1.0	unseen	True	False	2.285597812994979	2.9782997709990013	1.0	37.0	115324.7443	False		False	0.0	22.35360000000219	5.0
01	ses-036	39	images_fmri/gauze/gauze_01b.jpg	seen	3205	268	1	None	665.0	9535.0	1.0	seen-between-within	3	5	172.86	2.98	True	True	172.84766779599886	175.83567380499153							2.98800600899267	1.0	38.0	115329.2062	False		False	0.0	147.49589999999444	33.0
01	ses-036	40	images_fmri/doll/doll_01b.jpg	unseen	2461	206	1	None	500.0	7219.0	1.0	unseen-between	1	5	177.32999999999996	2.98	True	True	177.33036095999705	180.2969429329969	[['x', 179.08263278099184]]	-1.0	unseen	False	False	1.7526327809918882	2.9665819729998475	1.0	39.0	115333.6889	False		False			
01	ses-036	41	images_fmri/calculator/calculator_01b.jpg	seen	1249	105	1	None	241.0	3571.0	1.0	seen-within	2	5	181.8	2.98	False	False	181.7999291789893	184.7813392889948	[['b', 183.53275661899534]]	-1.0	unseen	True	False	1.7327566189953243	2.981410110005527	1.0	40.0	115338.1584	False		False	0.0	705.9640999999974	70.0
01	ses-036	42	images_fmri/mop/mop_01b.jpg	seen	4873	407	1	None	1020.0	14528.0	1.0	seen-between	2	5	186.27	2.98	True	False	186.2634379509982	189.25259994099903	[['b', 187.4075553369912]]	-1.0	unseen	True	False	1.1375553369911984	2.9891619900008664	1.0	41.0	115342.6219	False		False	7.0	0.0	610.0
01	ses-036	43	images_fmri/road_sign/road_sign_01b.jpg	seen	6313	527	1	None	1316.0	18723.0	1.0	seen-within-between	3	5	190.74	2.98	False	True	190.7299614479998	193.71421356000064	[['b', 194.41606517299078]]	2.0	seen	False	True	3.676065172990775	2.9842521120008314	1.0	42.0	115347.0885	False		False	7.0	0.0	620.0
01	ses-036	44	images_fmri/crib/crib_01b.jpg	unseen	2185	183	1	None	442.0	6389.0	1.0	unseen-within	1	5	195.21	2.98	True	False	195.21486238299985	198.17996783999843	[['b', 196.45827828199253]]	-1.0	unseen	False	False	1.2482782819925262	2.965105456998572	1.0	43.0	115351.5734	False		False			
01	ses-036	45	images_fmri/antelope/antelope_01b.jpg	unseen	145	13	1	None	27.0	368.0	1.0	unseen-between	1	5	199.68	2.98	False	True	199.68129011499693	202.6505046319944	[['x', 202.7850823669869]]	-1.0	unseen	False	False	3.105082366986892	2.9692145169974538	1.0	44.0	115356.0398	False		False			
01	ses-036	46	images_fmri/mailbox/mailbox_01b.jpg	unseen	4549	380	1	None	961.0	13686.0	1.0	unseen-between	1	5	204.15	2.98	True	False	204.14654144299857	207.1333568879927							2.986815444994136	1.0	45.0	115360.5050	False		False			
01	ses-036	47	images_fmri/waffle_iron/waffle_iron_01b.jpg	seen	8233	687	1	None	1772.0	24979.0	1.0	seen-between	2	5	208.62	2.98	True	True	208.6186294099898	211.59658461199436	[['y', 210.6715852849884]]	1.0	seen	False	False	2.0515852849883918	2.977955202004523	1.0	46.0	115364.9771	False		False	7.0	0.0	607.0
01	ses-036	48	images_fmri/paperclip/paperclip_01s.jpg	seen	5341	446	1	None	1117.0	15883.0	1.0	seen-between-within	3	5	213.09	2.98	False	True	213.08449313898743	216.0630084099976	[['b', 214.32598408299964]]	2.0	seen	False	True	1.2359840829996358	2.97851527101011	1.0	47.0	115369.4430	False		False	0.0	120.68050000000221	27.0
01	ses-036	49	images_fmri/bell/bell_01b.jpg	seen	577	49	1	None	117.0	1781.0	1.0	seen-within	2	5	217.56	2.98	True	True	217.56630600598876	220.53087300299376							2.964566997005022	1.0	48.0	115373.9248	False		False	0.0	178.8116999999911	40.0
01	ses-036	50	images_fmri/chin/chin_01b.jpg	seen	1693	142	1	None	331.0	4782.0	1.0	seen-within-between	3	5	222.03	2.98	False	False	222.03274464099377	225.0126429389929	[['a', 223.5892435299902]]	1.0	seen	False	False	1.559243529990198	2.9798982979991706	1.0	49.0	115378.3912	False		False	7.0	0.0	420.0
01	ses-036	51	images_fmri/hamster/hamster_01b.jpg	seen	3613	302	1	None	744.0	10655.0	1.0	seen-within-between	3	5	226.5	2.98	True	True	226.50031028299415	229.48018564899397	[['y', 228.63308580000012]]	1.0	seen	False	False	2.133085800000117	2.97987536599976	1.0	50.0	115382.8588	False		False	7.0	0.0	431.0
01	ses-036	52	images_fmri/scaffolding/scaffolding_01b.jpg	seen	6457	539	1	None	1371.0	19475.0	1.0	seen-within-between	3	5	230.97	2.98	False	False	230.9624222659913	233.9469442009868	[['b', 233.55133672199736]]	-1.0	unseen	True	False	2.58133672199736	2.984521934995428	1.0	51.0	115387.3209	False		False	7.0	0.0	606.0
01	ses-036	53	images_fmri/earring/earring_01b.jpg	unseen	2665	223	1	None	541.0	7848.0	1.0	unseen-between	1	5	235.44	2.98	False	False	235.43464583899183	238.4122304349876	[['b', 236.68096657098795]]	-1.0	unseen	False	False	1.2409665709879505	2.9775845959957223	1.0	52.0	115391.7931	False		False			
01	ses-036	54	images_fmri/lip_balm/lip_balm_01b.jpg	seen	4441	371	1	None	935.0	13357.0	1.0	seen-between-within	3	5	239.91	2.98	False	True	239.91581448899524	242.8786982219899	[['b', 241.05503475999285]]	2.0	seen	False	True	1.1450347599928534	2.962883732994669	1.0	53.0	115396.2743	False		False	0.0	1890.1212999999989	188.0
01	ses-036	55	images_fmri/mitten/mitten_01b.jpg	seen	4837	404	1	None	1009.0	14378.0	1.0	seen-between-within	3	5	244.38	2.98	False	False	244.3824820779992	247.3665270069905							2.984044928991352	1.0	54.0	115400.7410	False		False	0.0	1222.0680999999895	163.0
01	ses-036	56	images_fmri/blackberry/blackberry_01b.jpg	seen	685	58	1	None	136.0	2076.0	1.0	seen-within	2	5	248.85	2.98	True	True	248.8510033809871	251.8309210359876	[['b', 251.7770228249865]]	2.0	seen	False	True	2.9270228249864942	2.979917655000463	1.0	55.0	115405.2095	False		False	0.0	143.04869999999937	32.0
01	ses-036	57	images_fmri/mango/mango_01b.jpg	unseen	4597	384	1	None	967.0	13774.0	1.0	unseen-between	1	5	253.32	2.98	False	True	253.3119026459899	256.3006766719918							2.98877402600192	1.0	56.0	115409.6704	False		False			
01	ses-036	58	images_fmri/quill/quill_01b.jpg	seen	6037	504	1	None	1264.0	18009.0	1.0	seen-within	2	5	257.79	2.98	True	False	257.7837191659928	260.7618616589898	[['x', 260.4445988769876]]	2.0	seen	False	True	2.6545988769875635	2.9781424929969944	1.0	57.0	115414.1422	False		False	0.0	241.38259999999718	54.0
01	ses-036	59	images_fmri/waffle_iron/waffle_iron_01b.jpg	seen	8233	687	1	None	1772.0	24979.0	1.0	seen-between-within	3	5	262.26	2.98	False	False	262.263083998987	265.23092293099035	[['x', 263.23572680899815]]	2.0	seen	False	True	0.9757268089981608	2.96783893200336	1.0	58.0	115418.6216	False		False	0.0	53.64449999999488	12.0
01	ses-036	60	images_fmri/wrench/wrench_01b.jpg	unseen	8593	717	1	None	1842.0	25928.0	1.0	unseen-between	1	5	266.73	2.98	False	False	266.732744642999	269.7149263699976	[['b', 267.7318294799916]]	-1.0	unseen	False	False	1.0018294799915566	2.982181726998533	1.0	59.0	115423.0912	False		False			
