subject	session	TrialNumber	image_path	condition	image_nr	category_nr	exemplar_nr	test_image_nr	things_category_nr	things_image_nr	things_exemplar_nr	subcondition	repetition	run	onset	duration	response_mapping_flip_h	response_mapping_flip_v	onset_flip	offset_flip	keypresses	response	response_txt	error	response_confidence	response_time	duration_flip	ran	order	session_trial_time	atypical	atypical_log	exclude_session	delay_days	delay_seconds	trials_since_lastrep
03	ses-031	1	images_fmri/seesaw/seesaw_01b.jpg	unseen	6589	550	1	None	1403.0	19917.0	1.0	unseen-within	1	4	3.0	2.98	True	True	3.0036867279559374	5.966765336925164	[['a', 4.524605934973806]]	-2.0	unseen	False	True	1.524605934973806	2.9630786089692265	1.0	0.0	1125470.9346	False		False			
03	ses-031	2	images_fmri/tie/tie_05s.jpg	seen	7709	643	5	None	1659.0	23418.0	5.0	seen-between	2	4	7.47	2.98	True	False	7.470679064979777	10.449989626882598	[['a', 9.531573393847793]]	-2.0	unseen	True	True	2.0615733938477936	2.979310561902821	1.0	1.0	1125475.4016	False		False	7.0	0.0	183.0
03	ses-031	3	images_fmri/tomato/tomato_05s.jpg	seen	7793	650	5	None	1673.0	23618.0	5.0	seen-between-within	3	4	11.94	2.98	True	False	11.93721605092287	14.921953891869634	[['x', 12.813166131963953]]	2.0	seen	False	True	0.8731661319639539	2.984737840946764	1.0	2.0	1125479.8681	False		False	0.0	171.18150000018068	15.0
03	ses-031	4	images_fmri/elephant/elephant_01b.jpg	unseen	2761	231	1	None	555.0	8043.0	1.0	unseen-between	1	4	16.41	2.98	True	True	16.402706264983863	19.382949033984914	[['a', 18.073052767897025]]	-2.0	unseen	False	True	1.6630527678970246	2.980242769001052	1.0	3.0	1125484.3336	False		False			
03	ses-031	5	images_fmri/otter/otter_01b.jpg	unseen	5185	433	1	None	1086.0	15453.0	1.0	unseen-within	1	4	20.88	2.98	True	True	20.885229530977085	23.849490597844124	[['a', 22.735192951979116]]	-2.0	unseen	False	True	1.8551929519791168	2.9642610668670386	1.0	4.0	1125488.8161	False		False			
03	ses-031	6	images_fmri/goalpost/goalpost_05s.jpg	seen	3293	275	5	None	684.0	9793.0	5.0	seen-between	2	4	25.35	2.98	True	False	25.352455080021173	28.3327423799783	[['y', 27.868255903944373]]	1.0	seen	False	False	2.518255903944372	2.9802872999571264	1.0	5.0	1125493.2833	False		False	7.0	0.0	206.0
03	ses-031	7	images_fmri/floss/floss_05s.jpg	seen	3017	252	5	None	618.0	8917.0	5.0	seen-within-between	3	4	29.82	2.98	False	True	29.820323013933372	32.799279434839264	[['b', 32.03574881888926]]	2.0	seen	False	True	2.21574881888926	2.978956420905888	1.0	6.0	1125497.7512	False		False	7.0	0.0	332.0
03	ses-031	8	images_fmri/battery/battery_01b.jpg	unseen	445	38	1	None	98.0	1469.0	1.0	unseen-between	1	4	34.29	2.98	False	True	34.28512199991383	37.265779844950885	[['y', 35.5133670149371]]	-2.0	unseen	False	True	1.2233670149371036	2.980657845037058	1.0	7.0	1125502.2160	False		False			
03	ses-031	9	images_fmri/walker1/walker1_05s.jpg	seen	8249	688	5	None	1774.0	25011.0	5.0	seen-between	2	4	38.76	2.98	True	False	38.74988773697987	41.73306274204515	[['b', 40.425168856978416], ['y', 41.80925281206146]]	-1.0	unseen	True	False	1.6651688569784184	2.983175005065277	1.0	8.0	1125506.6808	False		False	7.0	0.0	492.0
03	ses-031	10	images_fmri/gravestone/gravestone_01b.jpg	unseen	3445	288	1	None	711.0	10195.0	1.0	unseen-within	1	4	43.23	2.98	True	False	43.23237743997015	46.199189794948325	[['b', 44.854224571958184], ['y', 45.524872480891645]]	-1.0	unseen	False	False	1.6242245719581874	2.966812354978174	1.0	9.0	1125511.1633	False		False			
03	ses-031	11	images_fmri/goalpost/goalpost_05s.jpg	seen	3293	275	5	None	684.0	9793.0	5.0	seen-between-within	3	4	47.7	2.98	True	False	47.70398257183842	50.6859886799939	[['x', 48.516453499905765]]	2.0	seen	False	True	0.8164534999057622	2.982006108155474	1.0	10.0	1125515.6349	False		False	0.0	22.351599999936298	5.0
03	ses-031	12	images_fmri/face_mask/face_mask_05s.jpg	seen	2849	238	5	None	571.0	8260.0	5.0	seen-within-between	3	4	52.17	2.98	False	False	52.16954757994972	55.148829262005165	[['b', 54.1541957189329]]	-1.0	unseen	True	False	1.9841957189328951	2.9792816820554435	1.0	11.0	1125520.1004	False		False	7.0	0.0	298.0
03	ses-031	13	images_fmri/gel/gel_01b.jpg	seen	3229	270	1	None	670.0	9597.0	1.0	seen-within	2	4	56.64	2.98	False	True	56.63432683283463	59.61544432491064	[['b', 57.872098170919344]]	2.0	seen	False	True	1.2320981709193433	2.981117492076009	1.0	12.0	1125524.5652	False		False	0.0	273.97500000009313	38.0
03	ses-031	14	images_fmri/bubble/bubble_01b.jpg	unseen	1057	89	1	None	208.0	3129.0	1.0	unseen-within	1	4	61.11	2.98	True	True	61.10447774804197	64.08189076790586	[['a', 62.60024743201211]]	-2.0	unseen	False	True	1.4902474320121115	2.9774130198638886	1.0	13.0	1125529.0354	False		False			
03	ses-031	15	images_fmri/crayfish/crayfish_01b.jpg	unseen	2149	180	1	None	435.0	6283.0	1.0	unseen-within	1	4	65.58	2.98	True	True	65.58574653998949	68.5484726598952	[['a', 67.03056659502909]]	-2.0	unseen	False	True	1.4505665950290876	2.96272611990571	1.0	14.0	1125533.5166	False		False			
03	ses-031	16	images_fmri/knot/knot_01b.jpg	unseen	4165	348	1	None	884.0	12654.0	1.0	unseen-between	1	4	70.05	2.98	False	False	70.04941670689732	73.0316024038475	[['y', 71.31765353796072]]	-2.0	unseen	False	True	1.267653537960726	2.9821856969501823	1.0	15.0	1125537.9803	False		False			
03	ses-031	17	images_fmri/okra/okra_05s.jpg	seen	5153	430	5	None	1075.0	15285.0	5.0	seen-within-between	3	4	74.52	2.98	True	True	74.52027450804599	77.49827338499017	[['a', 75.69102042587474]]	-2.0	unseen	True	True	1.171020425874744	2.9779988769441843	1.0	16.0	1125542.4512	False		False	7.0	0.0	448.0
03	ses-031	18	images_fmri/wooden_leg/wooden_leg_05s.jpg	seen	8561	714	5	None	1835.0	25837.0	5.0	seen-between	2	4	78.99	2.98	False	True	78.98657313594595	81.96481947787106	[['y', 80.72488485393114]]	-2.0	unseen	True	True	1.734884853931149	2.9782463419251144	1.0	17.0	1125546.9175	False		False	7.0	0.0	252.0
03	ses-031	19	images_fmri/bunkbed/bunkbed_05s.jpg	seen	1145	96	5	None	223.0	3333.0	5.0	seen-between-within	3	4	83.46	2.98	False	False	83.45236442796886	86.4314136179164	[['x', 86.4108525859192]]	2.0	seen	False	True	2.950852585919208	2.979049189947545	1.0	18.0	1125551.3833	False		False	0.0	1051.40690000006	160.0
03	ses-031	20	images_fmri/walker1/walker1_05s.jpg	seen	8249	688	5	None	1774.0	25011.0	5.0	seen-between-within	3	4	87.92999999999998	2.98	True	True	87.93148610298522	90.90317562199198	[['b', 88.83270210493356]]	2.0	seen	False	True	0.9027021049335816	2.971689519006759	1.0	19.0	1125555.8624	False		False	0.0	49.1816000000108	11.0
03	ses-031	21	images_fmri/toast/toast_01b.jpg	unseen	7741	646	1	None	1666.0	23513.0	1.0	unseen-within	1	4	92.4	2.98	True	False	92.40341540705413	95.38142003701068	[['a', 94.92425182787701]]	-2.0	unseen	False	True	2.524251827877009	2.9780046299565583	1.0	20.0	1125560.3343	False		False			
03	ses-031	22	images_fmri/bowl/bowl_01b.jpg	unseen	889	75	1	None	178.0	2702.0	1.0	unseen-between	1	4	96.87	2.98	False	True	96.87010064302012	99.85192814003676	[['y', 97.87472459790297]]	-2.0	unseen	False	True	1.004724597902964	2.9818274970166385	1.0	21.0	1125564.8010	False		False			
03	ses-031	23	images_fmri/applesauce/applesauce_01b.jpg	unseen	193	17	1	None	33.0	458.0	1.0	unseen-between	1	4	101.34	2.98	False	True	101.33613851503468	104.31436011893676	[['y', 102.93018590891734]]	-2.0	unseen	False	True	1.5901859089173342	2.978221603902057	1.0	22.0	1125569.2670	False		False			
03	ses-031	24	images_fmri/gravestone/gravestone_01b.jpg	seen	3445	288	1	None	711.0	10195.0	1.0	seen-within	2	4	105.81	2.98	True	False	105.801622916013	108.78562037600204	[['x', 106.63337452197447]]	2.0	seen	False	True	0.8233745219744719	2.983997459989041	1.0	23.0	1125573.7325	False		False	0.0	62.569200000027195	14.0
03	ses-031	25	images_fmri/barrel/barrel_05s.jpg	seen	413	35	5	None	77.0	1140.0	5.0	seen-within-between	3	4	110.28	2.98	False	True	110.28614914091304	113.24738687695935	[['y', 112.78862443799153]]	-2.0	unseen	True	True	2.508624437991529	2.9612377360463142	1.0	24.0	1125578.2170	False		False	7.0	0.0	210.0
03	ses-031	26	images_fmri/altar/altar_05s.jpg	seen	77	7	5	None	17.0	236.0	5.0	seen-between	2	4	114.75	2.98	False	False	114.74725534091704	117.73047963692808	[['y', 116.68029667204246]]	-2.0	unseen	True	True	1.9302966720424592	2.9832242960110307	1.0	25.0	1125582.6781	False		False	7.0	0.0	489.0
03	ses-031	27	images_fmri/milkshake/milkshake_01b.jpg	unseen	4789	400	1	None	1003.0	14281.0	1.0	unseen-within	1	4	119.22	2.98	False	True	119.21469436003828	122.20177467283791	[['y', 120.12178816203959]]	-2.0	unseen	False	True	0.901788162039594	2.9870803127996624	1.0	26.0	1125587.1456	False		False			
03	ses-031	28	images_fmri/envelope/envelope_05s.jpg	seen	2789	233	5	None	559.0	8099.0	5.0	seen-between	2	4	123.69	2.98	False	False	123.68457397492602	126.66803689696826	[['y', 124.83383857505396]]	-2.0	unseen	True	True	1.1438385750539624	2.983462922042236	1.0	27.0	1125591.6155	False		False	7.0	0.0	367.0
03	ses-031	29	images_fmri/trap/trap_01b.jpg	unseen	7933	662	1	None	1703.0	24019.0	1.0	unseen-within	1	4	128.16	2.98	True	True	128.1492314809002	131.13015564484522	[['a', 129.6057277279906]]	-2.0	unseen	False	True	1.445727727990601	2.9809241639450192	1.0	28.0	1125596.0801	False		False			
03	ses-031	30	images_fmri/dress/dress_01b.jpg	unseen	2593	217	1	None	519.0	7527.0	1.0	unseen-within	1	4	132.63	2.98	False	True	132.63124023005366	135.59746586205438	[['y', 133.66484684403986]]	-2.0	unseen	False	True	1.034846844039862	2.9662256320007145	1.0	29.0	1125600.5621	False		False			
03	ses-031	31	images_fmri/strainer/strainer_01b.jpg	unseen	7273	607	1	None	1567.0	22121.0	1.0	unseen-within	1	4	137.1	2.98	True	True	137.09779860684648	140.07994624902494	[['a', 138.40344537305646]]	-2.0	unseen	False	True	1.303445373056462	2.982147642178461	1.0	30.0	1125605.0287	False		False			
03	ses-031	32	images_fmri/milkshake/milkshake_01b.jpg	seen	4789	400	1	None	1003.0	14281.0	1.0	seen-within	2	4	141.57	2.98	False	True	141.56766692595556	144.5509786279872	[['b', 142.69589985790662]]	2.0	seen	False	True	1.1258998579066315	2.983311702031642	1.0	31.0	1125609.4986	False		False	0.0	22.35300000011921	5.0
03	ses-031	33	images_fmri/egg/egg_05s.jpg	seen	2705	226	5	None	547.0	7939.0	5.0	seen-between	2	4	146.04	2.98	False	True	146.03248172695749	149.01323642604984	[['y', 147.14302153303288], ['x', 148.5875803239178]]	-2.0	unseen	True	True	1.1030215330328872	2.9807546990923584	1.0	32.0	1125613.9634	False		False	7.0	0.0	520.0
03	ses-031	34	images_fmri/hairbrush/hairbrush_01b.jpg	seen	3553	297	1	None	735.0	10536.0	1.0	seen-within	2	4	150.51	2.98	True	False	150.51671569794416	153.4808955809567	[['x', 151.3747300398536]]	2.0	seen	False	True	0.8647300398536117	2.964179883012548	1.0	33.0	1125618.4476	False		False	0.0	1064.8415000000969	163.0
03	ses-031	35	images_fmri/frog/frog_01b.jpg	unseen	3121	261	1	None	645.0	9282.0	1.0	unseen-between	1	4	154.98	2.98	False	False	154.9826110189315	157.96297231991775	[['y', 156.19051550584845]]	-2.0	unseen	False	True	1.210515505848463	2.98036130098626	1.0	34.0	1125622.9135	False		False			
03	ses-031	36	images_fmri/wooden_leg/wooden_leg_05s.jpg	seen	8561	714	5	None	1835.0	25837.0	5.0	seen-between-within	3	4	159.45	2.98	False	True	159.45146688004024	162.43469101795927	[['b', 160.42395332688466]]	2.0	seen	False	True	0.9739533268846684	2.983224137919024	1.0	35.0	1125627.3824	False		False	0.0	80.46490000002086	18.0
03	ses-031	37	images_fmri/syringe/syringe_05s.jpg	seen	7433	620	5	None	1605.0	22674.0	5.0	seen-within-between	3	4	163.92	2.98	False	False	163.91376196499914	166.89596434985287	[['a', 165.95762348989956]]	1.0	seen	False	False	2.0376234898995733	2.982202384853736	1.0	36.0	1125631.8447	False		False	7.0	0.0	541.0
03	ses-031	38	images_fmri/koala/koala_01b.jpg	unseen	4177	349	1	None	885.0	12666.0	1.0	unseen-between	1	4	168.39	2.98	True	True	168.3801229458768	171.36250551906414	[['x', 170.82762377988547]]	-1.0	unseen	False	False	2.4376237798854845	2.9823825731873512	1.0	37.0	1125636.3110	False		False			
03	ses-031	39	images_fmri/revolver/revolver_05s.jpg	seen	6233	520	5	None	1305.0	18578.0	5.0	seen-within-between	3	4	172.86	2.98	True	True	172.8659743310418	175.82918814197183	[['x', 175.33097702101804]]	-1.0	unseen	True	False	2.470977021018029	2.963213810930029	1.0	38.0	1125640.7969	False		False	7.0	0.0	463.0
03	ses-031	40	images_fmri/rhinoceros/rhinoceros_05s.jpg	seen	6245	521	5	None	1307.0	18610.0	5.0	seen-between	2	4	177.32999999999996	2.98	True	True	177.33269997383468	180.31233359104957	[['a', 179.1103611739818]]	-2.0	unseen	True	True	1.780361173981845	2.9796336172148585	1.0	39.0	1125645.2636	False		False	7.0	0.0	234.0
03	ses-031	41	images_fmri/cactus/cactus_05n.jpg	seen	1217	102	5	None	236.0	3510.0	5.0	seen-within-between	3	4	181.8	2.98	True	True	181.7998679939192	184.7819243699778	[['a', 182.7963053130079]]	-2.0	unseen	True	True	0.9963053130078948	2.9820563760586083	1.0	40.0	1125649.7308	False		False	7.0	0.0	488.0
03	ses-031	42	images_fmri/earwig/earwig_01b.jpg	seen	2677	224	1	None	542.0	7864.0	1.0	seen-within	2	4	186.27	2.98	True	False	186.2662957960274	189.250139700016	[['x', 187.2375179119408]]	2.0	seen	False	True	0.9675179119408028	2.9838439039886	1.0	41.0	1125654.1972	False		False	0.0	408.0910000000149	68.0
03	ses-031	43	images_fmri/suspenders/suspenders_05s.jpg	seen	7397	617	5	None	1590.0	22458.0	5.0	seen-between	2	4	190.74	2.98	True	False	190.73425649898127	193.7122472990304	[['b', 193.40155958384275]]	-1.0	unseen	True	False	2.6615595838427453	2.977990800049156	1.0	42.0	1125658.6651	False		False	7.0	0.0	449.0
03	ses-031	44	images_fmri/hamburger/hamburger_01s.jpg	unseen	3577	299	1	None	741.0	10619.0	1.0	unseen-between	1	4	195.21	2.98	True	False	195.2120949178934	198.17871120385823	[['a', 197.97129427199252]]	-2.0	unseen	False	True	2.7612942719925115	2.9666162859648466	1.0	43.0	1125663.1430	False		False			
03	ses-031	45	images_fmri/dress/dress_01b.jpg	seen	2593	217	1	None	519.0	7527.0	1.0	seen-within	2	4	199.68	2.98	False	True	199.67892712401223	202.6619650430512	[['b', 200.95505121303722]]	2.0	seen	False	True	1.2750512130372158	2.9830379190389067	1.0	44.0	1125667.6098	False		False	0.0	67.04769999999553	15.0
03	ses-031	46	images_fmri/snowplow/snowplow_05n.jpg	seen	6929	578	5	None	1485.0	21030.0	5.0	seen-between	2	4	204.15	2.98	False	True	204.1473492810037	207.1284644380212	[['y', 206.5138349828776]]	-2.0	unseen	True	True	2.3638349828775915	2.9811151570174843	1.0	45.0	1125672.0782	False		False	7.0	0.0	259.0
03	ses-031	47	images_fmri/strainer/strainer_01b.jpg	seen	7273	607	1	None	1567.0	22121.0	1.0	seen-within	2	4	208.62	2.98	True	False	208.61576114804484	211.5973735130392	[['x', 209.5757574730087]]	2.0	seen	False	True	0.9557574730087026	2.981612364994362	1.0	46.0	1125676.5467	False		False	0.0	71.51800000015646	16.0
03	ses-031	48	images_fmri/shrimp/shrimp_05s.jpg	seen	6749	563	5	None	1439.0	20405.0	5.0	seen-within-between	3	4	213.09	2.98	False	True	213.0825707288459	216.0614882959053	[['b', 215.33835869492032]]	2.0	seen	False	True	2.248358694920313	2.9789175670593977	1.0	47.0	1125681.0135	False		False	7.0	0.0	434.0
03	ses-031	49	images_fmri/blackberry/blackberry_01b.jpg	unseen	685	58	1	None	136.0	2076.0	1.0	unseen-between	1	4	217.56	2.98	False	False	217.56518874200992	220.52803313103504	[['y', 218.78644190402701]]	-2.0	unseen	False	True	1.2264419040270127	2.962844389025122	1.0	48.0	1125685.4961	False		False			
03	ses-031	50	images_fmri/otter/otter_01b.jpg	seen	5185	433	1	None	1086.0	15453.0	1.0	seen-within	2	4	222.03	2.98	False	False	222.02901864703745	225.01124303299	[['x', 223.8821882789489]]	2.0	seen	False	True	1.852188278948887	2.982224385952577	1.0	49.0	1125689.9599	False		False	0.0	201.14379999996163	45.0
03	ses-031	51	images_fmri/trumpet/trumpet_05s.jpg	seen	8033	670	5	None	1722.0	24276.0	5.0	seen-within-between	3	4	226.5	2.98	True	True	226.4954898969736	229.4777653410565	[['y', 228.72825811989605]]	1.0	seen	False	False	2.2282581198960543	2.982275444082916	1.0	50.0	1125694.4264	False		False	7.0	0.0	258.0
03	ses-031	52	images_fmri/iguana/iguana_05n.jpg	seen	3929	328	5	None	826.0	11806.0	5.0	seen-within-between	3	4	230.97	2.98	False	False	230.96306319301948	233.9454121289309	[['y', 231.99958118703216]]	-2.0	unseen	True	True	1.0295811870321645	2.982348935911432	1.0	51.0	1125698.8940	False		False	7.0	0.0	481.0
03	ses-031	53	images_fmri/saltshaker/saltshaker_05s.jpg	seen	6425	536	5	None	1351.0	19209.0	5.0	seen-between-within	3	4	235.44	2.98	True	False	235.43187451991253	238.4153335208539	[['x', 236.52766298595816]]	2.0	seen	False	True	1.0876629859581612	2.983459000941366	1.0	52.0	1125703.3628	False		False	0.0	372.32689999998547	60.0
03	ses-031	54	images_fmri/horseshoe/horseshoe_05s.jpg	seen	3833	320	5	None	800.0	11442.0	5.0	seen-between-within	3	4	239.91	2.98	False	False	239.9148341440596	242.8801201689057	[['x', 240.75626255385578]]	2.0	seen	False	True	0.8462625538557802	2.965286024846137	1.0	53.0	1125707.8457	False		False	0.0	1355.3843999998644	228.0
03	ses-031	55	images_fmri/tie/tie_05s.jpg	seen	7709	643	5	None	1659.0	23418.0	5.0	seen-between-within	3	4	244.38	2.98	True	False	244.38044655206613	247.3663644180633	[['x', 245.21148619591258]]	2.0	seen	False	True	0.8314861959125892	2.9859178659971803	1.0	54.0	1125712.3113	False		False	0.0	236.90969999996014	53.0
03	ses-031	56	images_fmri/carrot/carrot_01b.jpg	unseen	1441	121	1	None	278.0	4075.0	1.0	unseen-between	1	4	248.85	2.98	False	False	248.849327043863	251.82719401200305	[['y', 250.8832826439757]]	-2.0	unseen	False	True	2.033282643975696	2.977866968140006	1.0	55.0	1125716.7802	False		False			
03	ses-031	57	images_fmri/lip_balm/lip_balm_01b.jpg	seen	4441	371	1	None	935.0	13357.0	1.0	seen-within	2	4	253.32	2.98	False	False	253.31389971706085	256.2938261348754	[['x', 255.47679456090555]]	2.0	seen	False	True	2.1567945609055528	2.979926417814568	1.0	56.0	1125721.2448	False		False	0.0	772.4298000000417	122.0
03	ses-031	58	images_fmri/envelope/envelope_05s.jpg	seen	2789	233	5	None	559.0	8099.0	5.0	seen-between-within	3	4	257.79	2.98	True	True	257.7816529478878	260.7603767788969	[['b', 259.82771437591873]]	2.0	seen	False	True	2.03771437591871	2.97872383100912	1.0	57.0	1125725.7125	False		False	0.0	134.09699999983422	30.0
03	ses-031	59	images_fmri/egg/egg_05s.jpg	seen	2705	226	5	None	547.0	7939.0	5.0	seen-between-within	3	4	262.26	2.98	False	False	262.26413417002186	265.2312998860143	[['x', 263.04451973200776]]	2.0	seen	False	True	0.7845197320077659	2.9671657159924507	1.0	58.0	1125730.1950	False		False	0.0	116.23160000005737	26.0
03	ses-031	60	images_fmri/seesaw/seesaw_01b.jpg	seen	6589	550	1	None	1403.0	19917.0	1.0	seen-within	2	4	266.73	2.98	False	False	266.7323263529688	269.7112529538572	[['x', 267.64783740299754]]	2.0	seen	False	True	0.9178374029975204	2.9789266008883715	1.0	59.0	1125734.6632	False		False	0.0	263.7286000000313	59.0
