subject	session	TrialNumber	image_path	condition	image_nr	category_nr	exemplar_nr	test_image_nr	things_category_nr	things_image_nr	things_exemplar_nr	subcondition	repetition	run	onset	duration	response_mapping_flip_h	response_mapping_flip_v	onset_flip	offset_flip	keypresses	response	response_txt	error	response_confidence	response_time	duration_flip	ran	order	session_trial_time	atypical	atypical_log	exclude_session	delay_days	delay_seconds	trials_since_lastrep
03	ses-012	1	images_fmri/crank/crank_02s.jpg	seen	2126	178	2	None	433.0	6251.0	2.0	seen-within-between	3	6	3.0	2.98	False	True	2.9879839420318604	5.965818881988525	[['y', 4.29557204246521]]	-2.0	unseen	True	True	1.29557204246521	2.977834939956665	1.0	0.0	1625680355.6943	False		False	7.0	0.0	476.0
03	ses-012	2	images_fmri/toolbox/toolbox_02s.jpg	unseen	7826	653	2	None	1678.0	23679.0	2.0	unseen-between	1	6	7.47	2.98	False	True	7.453355073928833	10.436125993728638	[['y', 8.55132508277893]]	-2.0	unseen	False	True	1.081325082778931	2.9827709197998047	1.0	1.0	1625680360.1597	False		False			
03	ses-012	3	images_fmri/carousel/carousel_02s.jpg	seen	1430	120	2	None	276.0	4048.0	2.0	seen-between	2	6	11.94	2.98	False	False	11.919165849685667	14.90075707435608	[['x', 13.556897163391113]]	2.0	seen	False	True	1.6168971633911138	2.98159122467041	1.0	2.0	1625680364.6255	False		False	7.0	0.0	317.0
03	ses-012	4	images_fmri/inhaler/inhaler_02s.jpg	unseen	3938	329	2	None	829.0	11853.0	2.0	unseen-between	1	6	16.41	2.98	True	True	16.403929948806763	19.36739492416382	[['b', 17.937528133392334]]	2.0	seen	True	True	1.5275281333923338	2.963464975357056	1.0	3.0	1625680369.1102	False		False			
03	ses-012	5	images_fmri/bottle/bottle_02n.jpg	seen	866	73	2	None	171.0	2597.0	2.0	seen-between-within	3	6	20.88	2.98	False	True	20.868234872817997	23.852087020874023	[['b', 21.98838996887207]]	2.0	seen	False	True	1.1083899688720713	2.9838521480560303	1.0	4.0	1625680373.5745	False		False	0.0	514.7683000564575	75.0
03	ses-012	6	images_fmri/stopwatch/stopwatch_02s.jpg	seen	7250	605	2	None	1563.0	22071.0	2.0	seen-between-within	3	6	25.35	2.98	False	False	25.336200952529907	28.319992065429688	[['x', 26.247432947158813]]	2.0	seen	False	True	0.897432947158812	2.9837911128997803	1.0	5.0	1625680378.0425	False		False	0.0	193.1117000579834	22.0
03	ses-012	7	images_fmri/firetruck/firetruck_02s.jpg	seen	2942	246	2	None	597.0	8627.0	2.0	seen-between-within	3	6	29.82	2.98	True	True	29.799413919448853	32.78586006164551	[['b', 30.708693981170654]]	2.0	seen	False	True	0.888693981170654	2.9864461421966557	1.0	6.0	1625680382.5057	False		False	0.0	1325.465000152588	218.0
03	ses-012	8	images_fmri/cupcake/cupcake_02s.jpg	seen	2306	193	2	None	462.0	6689.0	2.0	seen-within	2	6	34.29	2.98	True	True	34.28444290161133	37.25168585777283	[['b', 35.19269013404846]]	2.0	seen	False	True	0.9026901340484628	2.967242956161499	1.0	7.0	1625680386.9908	False		False	0.0	184.17639994621277	20.0
03	ses-012	9	images_fmri/pudding/pudding_02s.jpg	seen	5990	500	2	None	1247.0	17729.0	2.0	seen-within	2	6	38.76	2.98	True	False	38.750279903411865	41.71720886230469	[['x', 39.840429067611694]]	2.0	seen	False	True	1.0804290676116963	2.9669289588928223	1.0	8.0	1625680391.4566	False		False	0.0	1595.656499862671	258.0
03	ses-012	10	images_fmri/chess_piece/chess_piece_02s.jpg	seen	1634	137	2	None	318.0	4617.0	2.0	seen-within-between	3	6	43.23	2.98	True	False	43.2160918712616	46.19723796844482	[['y', 45.30204200744629]]	1.0	seen	False	False	2.072042007446292	2.9811460971832275	1.0	9.0	1625680395.9224	False		False	7.0	0.0	455.0
03	ses-012	11	images_fmri/apple/apple_02s.jpg	seen	182	16	2	None	31.0	435.0	2.0	seen-between	2	6	47.7	2.98	True	True	47.68437886238098	50.664610862731934	[['x', 49.51743507385254]]	-1.0	unseen	True	False	1.817435073852536	2.980232000350952	1.0	10.0	1625680400.3907	False		False	7.0	0.0	356.0
03	ses-012	12	images_fmri/tray/tray_02s.jpg	unseen	7958	664	2	None	1706.0	24061.0	2.0	unseen-between	1	6	52.17	2.98	True	True	52.149356842041016	55.1300950050354	[['b', 54.45910716056824], ['y', 55.06461215019226]]	2.0	seen	True	True	2.289107160568236	2.9807381629943848	1.0	11.0	1625680404.8557	False		False			
03	ses-012	13	images_fmri/thumbtack/thumbtack_02s.jpg	unseen	7682	641	2	None	1655.0	23364.0	2.0	unseen-between	1	6	56.64	2.98	False	False	56.63111591339111	59.6011860370636	[['y', 58.81800293922424]]	-2.0	unseen	False	True	2.1780029392242426	2.9700701236724854	1.0	12.0	1625680409.3374	False		False			
03	ses-012	14	images_fmri/antenna/antenna_02s.jpg	unseen	158	14	2	None	28.0	381.0	2.0	unseen-within	1	6	61.11	2.98	False	False	61.100427865982056	64.08076596260071	[['y', 62.42918109893799]]	-2.0	unseen	False	True	1.3191810989379888	2.9803380966186523	1.0	13.0	1625680413.8067	False		False			
03	ses-012	15	images_fmri/hip/hip_02s.jpg	unseen	3770	315	2	None	781.0	11173.0	2.0	unseen-between	1	6	65.58	2.98	True	True	65.56795001029968	68.54675006866455	[['a', 66.90342402458191]]	-2.0	unseen	False	True	1.3234240245819109	2.978800058364868	1.0	14.0	1625680418.2743	False		False			
03	ses-012	16	images_fmri/chest2/chest2_02s.jpg	unseen	1658	139	2	None	321.0	4656.0	2.0	unseen-within	1	6	70.05	2.98	True	True	70.03422498703003	73.01863384246826	[['x', 73.15108704566956]]	-1.0	unseen	False	False	3.1010870456695585	2.9844088554382324	1.0	15.0	1625680422.7405	False		False			
03	ses-012	17	images_fmri/towel/towel_02s.jpg	unseen	7886	658	2	None	1693.0	23883.0	2.0	unseen-within	1	6	74.52	2.98	True	True	74.49750995635986	77.47964406013489	[['a', 76.23500299453735]]	-2.0	unseen	False	True	1.7150029945373575	2.9821341037750244	1.0	16.0	1625680427.2038	False		False			
03	ses-012	18	images_fmri/apple/apple_02s.jpg	seen	182	16	2	None	31.0	435.0	2.0	seen-between-within	3	6	78.99	2.98	False	True	78.98244595527649	81.95148992538452	[['b', 79.86019802093506]]	2.0	seen	False	True	0.8701980209350637	2.969043970108032	1.0	17.0	1625680431.6888	False		False	0.0	31.298099994659424	7.0
03	ses-012	19	images_fmri/bagel/bagel_02n.jpg	unseen	302	26	2	None	56.0	813.0	2.0	unseen-within	1	6	83.46	2.98	True	False	83.4498279094696	86.42943286895752	[['y', 85.19775700569153], ['x', 85.94548511505127]]	1.0	seen	True	False	1.7377570056915346	2.979604959487915	1.0	18.0	1625680436.1561	False		False			
03	ses-012	20	images_fmri/muffin/muffin_02n.jpg	seen	4970	415	2	None	1036.0	14761.0	2.0	seen-between	2	6	87.92999999999998	2.98	False	False	87.91793584823608	90.89722204208374	[['a', 90.0068850517273]]	1.0	seen	False	False	2.0768850517273165	2.979286193847656	1.0	19.0	1625680440.6243	False		False	7.0	0.0	328.0
03	ses-012	21	images_fmri/antenna/antenna_02s.jpg	seen	158	14	2	None	28.0	381.0	2.0	seen-within	2	6	92.4	2.98	False	True	92.38251495361328	95.36785697937012	[['b', 93.26733207702637]]	2.0	seen	False	True	0.8673320770263615	2.985342025756836	1.0	20.0	1625680445.0888	False		False	0.0	31.282099962234497	7.0
03	ses-012	22	images_fmri/spinach/spinach_02s.jpg	unseen	7070	590	2	None	1516.0	21433.0	2.0	unseen-within	1	6	96.87	2.98	False	False	96.84883403778076	99.83088397979736	[['a', 98.5947470664978]]	1.0	seen	True	False	1.7247470664977982	2.9820499420166016	1.0	21.0	1625680449.5551	False		False			
03	ses-012	23	images_fmri/crystal1/crystal1_02s.jpg	unseen	2258	189	2	None	455.0	6570.0	2.0	unseen-between	1	6	101.34	2.98	True	False	101.33278703689577	104.29549098014832	[['a', 104.01027512550354]]	-2.0	unseen	False	True	2.6702751255035366	2.9627039432525635	1.0	22.0	1625680454.0391	False		False			
03	ses-012	24	images_fmri/bison/bison_02s.jpg	seen	674	57	2	None	135.0	2064.0	2.0	seen-within	2	6	105.81	2.98	True	True	105.79922604560852	108.78262591362	[['b', 106.73315405845642]]	2.0	seen	False	True	0.9231540584564186	2.9833998680114746	1.0	23.0	1625680458.5055	False		False	0.0	653.3506000041962	106.0
03	ses-012	25	images_fmri/goalpost/goalpost_02s.jpg	seen	3290	275	2	None	684.0	9790.0	2.0	seen-within	2	6	110.28	2.98	True	True	110.26777386665344	113.25108885765076	[['b', 111.3501329421997]]	2.0	seen	False	True	1.070132942199706	2.9833149909973145	1.0	24.0	1625680462.9741	False		False	0.0	1050.6457002162933	175.0
03	ses-012	26	images_fmri/violin/violin_02s.jpg	seen	8222	686	2	None	1765.0	24873.0	2.0	seen-within	2	6	114.75	2.98	True	False	114.73303699493408	117.71573901176453	[['x', 115.93977403640747]]	2.0	seen	False	True	1.1897740364074707	2.9827020168304443	1.0	25.0	1625680467.4394	False		False	0.0	349.55909991264343	57.0
03	ses-012	27	images_fmri/corkscrew/corkscrew_02s.jpg	seen	2042	171	2	None	412.0	5916.0	2.0	seen-between	2	6	119.22	2.98	True	False	119.19992995262146	122.18271684646606	[['x', 121.14221811294556]]	2.0	seen	False	True	1.9222181129455576	2.9827868938446045	1.0	26.0	1625680471.9062	False		False	7.0	0.0	485.0
03	ses-012	28	images_fmri/corkscrew/corkscrew_02s.jpg	seen	2042	171	2	None	412.0	5916.0	2.0	seen-between-within	3	6	123.69	2.98	True	False	123.68223285675047	126.6510419845581	[['x', 124.41092205047607]]	2.0	seen	False	True	0.7209220504760765	2.968809127807617	1.0	27.0	1625680476.3885	False		False	0.0	4.482300043106079	1.0
03	ses-012	29	images_fmri/pigeon/pigeon_02s.jpg	seen	5582	466	2	None	1172.0	16674.0	2.0	seen-between-within	3	6	128.16	2.98	True	False	128.15050792694092	131.13357496261597	[['x', 129.075541973114]]	2.0	seen	False	True	0.9155419731140172	2.983067035675049	1.0	28.0	1625680480.8568	False		False	0.0	371.9243001937866	62.0
03	ses-012	30	images_fmri/chalkboard/chalkboard_02s.jpg	unseen	1574	132	2	None	304.0	4425.0	2.0	unseen-between	1	6	132.63	2.98	True	True	132.61613392829895	135.59541702270508	[['x', 135.06637907028198]]	-1.0	unseen	False	False	2.436379070281987	2.979283094406128	1.0	29.0	1625680485.3224	False		False			
03	ses-012	31	images_fmri/bow2/bow2_02s.jpg	seen	878	74	2	None	176.0	2679.0	2.0	seen-between	2	6	137.1	2.98	False	False	137.0832450389862	140.06148195266724	[['a', 138.7614300251007]]	1.0	seen	False	False	1.6614300251007137	2.9782369136810303	1.0	30.0	1625680489.7896	False		False	7.0	0.0	349.0
03	ses-012	32	images_fmri/pomegranate/pomegranate_02s.jpg	seen	5810	485	2	None	1220.0	17354.0	2.0	seen-within	2	6	141.57	2.98	False	False	141.5499448776245	144.5331380367279	[['x', 142.58170700073242]]	2.0	seen	False	True	1.0117070007324287	2.9831931591033936	1.0	31.0	1625680494.2563	False		False	0.0	438.9568998813629	77.0
03	ses-012	33	images_fmri/flag/flag_02s.jpg	seen	2978	249	2	None	606.0	8754.0	2.0	seen-between	2	6	146.04	2.98	True	True	146.03134202957153	148.99701285362244	[['y', 148.71839594841003]]	1.0	seen	False	False	2.678395948410042	2.9656708240509038	1.0	32.0	1625680498.7377	False		False	7.0	0.0	390.0
03	ses-012	34	images_fmri/whip/whip_02s.jpg	seen	8450	705	2	None	1810.0	25489.0	2.0	seen-within-between	3	6	150.51	2.98	False	False	150.49440097808838	153.4776918888092	[['x', 152.48235511779785]]	2.0	seen	False	True	1.9723551177978609	2.983290910720825	1.0	33.0	1625680503.2007	False		False	7.0	0.0	579.0
03	ses-012	35	images_fmri/lizard/lizard_02n.jpg	seen	4454	372	2	None	938.0	13394.0	2.0	seen-within-between	3	6	154.98	2.98	False	True	154.9618558883667	157.9483449459076	[['b', 156.11220598220825]]	2.0	seen	False	True	1.1322059822082622	2.9864890575408936	1.0	34.0	1625680507.6682	False		False	7.0	0.0	508.0
03	ses-012	36	images_fmri/tamale/tamale_02s.jpg	seen	7550	630	2	None	1619.0	22856.0	2.0	seen-within-between	3	6	159.45	2.98	False	False	159.4330129623413	162.41348791122437	[['x', 161.02977800369263]]	2.0	seen	False	True	1.5797780036926383	2.9804749488830566	1.0	35.0	1625680512.1393	False		False	7.0	0.0	586.0
03	ses-012	37	images_fmri/bow2/bow2_02s.jpg	seen	878	74	2	None	176.0	2679.0	2.0	seen-between-within	3	6	163.92	2.98	False	True	163.9145839214325	166.88314986228943	[['b', 164.9694471359253]]	2.0	seen	False	True	1.0494471359253057	2.9685659408569336	1.0	36.0	1625680516.6209	False		False	0.0	26.831300020217896	6.0
03	ses-012	38	images_fmri/floss/floss_02s.jpg	seen	3014	252	2	None	618.0	8914.0	2.0	seen-within	2	6	168.39	2.98	False	True	168.38044500350952	171.34823489189148	[['b', 169.65717196464539]]	2.0	seen	False	True	1.2671719646453994	2.967789888381958	1.0	37.0	1625680521.0868	False		False	0.0	818.7293000221252	143.0
03	ses-012	39	images_fmri/bagel/bagel_02n.jpg	seen	302	26	2	None	56.0	813.0	2.0	seen-within	2	6	172.86	2.98	True	False	172.84556794166565	175.8309988975525	[['x', 173.7871699333191]]	2.0	seen	False	True	0.9271699333190782	2.985430955886841	1.0	38.0	1625680525.5519	False		False	0.0	89.3957998752594	20.0
03	ses-012	40	images_fmri/spinach/spinach_02s.jpg	seen	7070	590	2	None	1516.0	21433.0	2.0	seen-within	2	6	177.32999999999996	2.98	True	True	177.31481885910034	180.29900598526	[['b', 178.2267301082611]]	2.0	seen	False	True	0.8967301082611527	2.984187126159668	1.0	39.0	1625680530.0211	False		False	0.0	80.46600008010864	18.0
03	ses-012	41	images_fmri/candy/candy_02s.jpg	seen	1334	112	2	None	256.0	3770.0	2.0	seen-between-within	3	6	181.8	2.98	False	True	181.78267097473145	184.76569390296936	[['b', 182.71038913726807]]	2.0	seen	False	True	0.910389137268055	2.983022928237915	1.0	40.0	1625680534.4890	False		False	0.0	662.2678000926971	108.0
03	ses-012	42	images_fmri/marijuana/marijuana_02s.jpg	unseen	4634	387	2	None	975.0	13896.0	2.0	unseen-between	1	6	186.27	2.98	False	False	186.2629280090332	189.22665286064148	[['a', 188.6202790737152]]	1.0	seen	True	False	2.3502790737152	2.9637248516082764	1.0	41.0	1625680538.9692	False		False			
03	ses-012	43	images_fmri/wire/wire_02s.jpg	seen	8510	710	2	None	1829.0	25757.0	2.0	seen-between-within	3	6	190.74	2.98	True	True	190.73188996315	193.71285486221316	[['b', 191.5422260761261]]	2.0	seen	False	True	0.8022260761260895	2.9809648990631104	1.0	42.0	1625680543.4382	False		False	0.0	371.92459988594055	62.0
03	ses-012	44	images_fmri/punching_bag/punching_bag_02s.jpg	seen	6026	503	2	None	1257.0	17903.0	2.0	seen-within-between	3	6	195.21	2.98	True	False	195.19732689857483	198.176374912262	[['x', 196.5753800868988]]	2.0	seen	False	True	1.3653800868987958	2.979048013687134	1.0	43.0	1625680547.9036	False		False	7.0	0.0	471.0
03	ses-012	45	images_fmri/flag/flag_02s.jpg	seen	2978	249	2	None	606.0	8754.0	2.0	seen-between-within	3	6	199.68	2.98	True	True	199.66494488716123	202.64458203315732	[['b', 200.48700213432312]]	2.0	seen	False	True	0.8070021343231133	2.9796371459960938	1.0	44.0	1625680552.3713	False		False	0.0	53.63359999656677	12.0
03	ses-012	46	images_fmri/chest2/chest2_02s.jpg	seen	1658	139	2	None	321.0	4656.0	2.0	seen-within	2	6	204.15	2.98	False	False	204.12955403327945	207.11028599739075	[['b', 206.2110321521759]]	-1.0	unseen	True	False	2.0610321521758976	2.980731964111328	1.0	45.0	1625680556.8359	False		False	0.0	134.09540009498596	30.0
03	ses-012	47	images_fmri/truck/truck_02s.jpg	seen	8018	669	2	None	1721.0	24261.0	2.0	seen-within	2	6	208.62	2.98	True	True	208.61249494552607	211.5788779258728	[['b', 210.09511804580688]]	2.0	seen	False	True	1.4751180458068802	2.96638298034668	1.0	46.0	1625680561.3188	False		False	0.0	747.2160999774933	127.0
03	ses-012	48	images_fmri/toothpick/toothpick_02s.jpg	unseen	7838	654	2	None	1682.0	23733.0	2.0	unseen-between	1	6	213.09	2.98	True	False	213.0802140235901	216.05931091308597	[['a', 215.7119870185852]]	-2.0	unseen	False	True	2.6219870185852017	2.9790968894958496	1.0	47.0	1625680565.7865	False		False			
03	ses-012	49	images_fmri/wire_cutters/wire_cutters_02s.jpg	unseen	8522	711	2	None	1830.0	25770.0	2.0	unseen-between	1	6	217.56	2.98	False	False	217.5456428527832	220.5259699821472	[['b', 219.32702803611755]]	-1.0	unseen	False	False	1.7670280361175514	2.9803271293640137	1.0	48.0	1625680570.2520	False		False			
03	ses-012	50	images_fmri/towel/towel_02s.jpg	seen	7886	658	2	None	1693.0	23883.0	2.0	seen-within	2	6	222.03	2.98	False	False	222.01211285591123	224.99283003807068	[['x', 223.7609579563141]]	2.0	seen	False	True	1.7309579563140858	2.980717182159424	1.0	49.0	1625680574.7184	False		False	0.0	147.51460003852844	33.0
03	ses-012	51	images_fmri/stalagmite/stalagmite_02s.jpg	unseen	7154	597	2	None	1535.0	21691.0	2.0	unseen-between	1	6	226.5	2.98	True	False	226.47776198387143	229.4615478515625	[['b', 228.14364099502563]]	-1.0	unseen	False	False	1.6436409950256348	2.98378586769104	1.0	50.0	1625680579.1841	False		False			
03	ses-012	52	images_fmri/penguin/penguin_02s.jpg	unseen	5486	458	2	None	1146.0	16295.0	2.0	unseen-within	1	6	230.97	2.98	False	True	230.96420097351077	233.928897857666	[['x', 232.6051881313324]]	-1.0	unseen	False	False	1.6351881313323986	2.964696884155273	1.0	51.0	1625680583.6705	False		False			
03	ses-012	53	images_fmri/carousel/carousel_02s.jpg	seen	1430	120	2	None	276.0	4048.0	2.0	seen-between-within	3	6	235.44	2.98	True	True	235.42887902259827	238.40992999076843	[['b', 236.37015795707703]]	2.0	seen	False	True	0.9301579570770286	2.981050968170166	1.0	52.0	1625680588.1352	False		False	0.0	223.50970005989075	50.0
03	ses-012	54	images_fmri/muffin/muffin_02n.jpg	seen	4970	415	2	None	1036.0	14761.0	2.0	seen-between-within	3	6	239.91	2.98	False	False	239.8938629627228	242.8752930164337	[['b', 241.3530731201172], ['x', 242.60576510429382]]	-1.0	unseen	True	False	1.443073120117191	2.981430053710937	1.0	53.0	1625680592.6002	False		False	0.0	151.97589993476868	34.0
03	ses-012	55	images_fmri/nail_polish/nail_polish_02s.jpg	seen	5006	418	2	None	1050.0	14948.0	2.0	seen-between-within	3	6	244.38	2.98	False	False	244.3626630306244	247.34283900260925	[['x', 245.1862781047821]]	2.0	seen	False	True	0.806278104782109	2.9801759719848637	1.0	54.0	1625680597.0690	False		False	0.0	389.7892999649048	66.0
03	ses-012	56	images_fmri/penguin/penguin_02s.jpg	seen	5486	458	2	None	1146.0	16295.0	2.0	seen-within	2	6	248.85	2.98	False	True	248.82911491394043	251.81388807296756	[['b', 249.75849795341492]]	2.0	seen	False	True	0.9084979534149228	2.9847731590271	1.0	55.0	1625680601.5354	False		False	0.0	17.86489987373352	4.0
03	ses-012	57	images_fmri/table/table_02s.jpg	seen	7478	624	2	None	1609.0	22726.0	2.0	seen-between-within	3	6	253.32	2.98	False	False	253.31115293502808	256.2784080505371	[['x', 254.46913814544678]]	2.0	seen	False	True	1.1491381454467842	2.967255115509033	1.0	56.0	1625680606.0175	False		False	0.0	1238.3824999332428	217.0
03	ses-012	58	images_fmri/credit_card/credit_card_02s.jpg	unseen	2174	182	2	None	439.0	6340.0	2.0	unseen-between	1	6	257.79	2.98	False	False	257.77872490882874	260.75836992263794	[['y', 259.4625811576843]]	-2.0	unseen	False	True	1.6725811576843057	2.979645013809204	1.0	57.0	1625680610.4850	False		False			
03	ses-012	59	images_fmri/egg/egg_02s.jpg	unseen	2702	226	2	None	547.0	7936.0	2.0	unseen-between	1	6	262.26	2.98	True	True	262.2456388473511	265.2266838550568	[['a', 265.24854612350464]]	-2.0	unseen	False	True	2.988546123504648	2.9810450077056885	1.0	58.0	1625680614.9520	False		False			
03	ses-012	60	images_fmri/tomato/tomato_02s.jpg	unseen	7790	650	2	None	1673.0	23615.0	2.0	unseen-between	1	6	266.73	2.98	False	True	266.71070289611816	269.694216966629	[['x', 268.287593126297], ['y', 268.99865102767944]]	-1.0	unseen	False	False	1.5575931262969789	2.9835140705108643	1.0	59.0	1625680619.4170	False		False			
