subject	session	TrialNumber	image_path	condition	image_nr	category_nr	exemplar_nr	test_image_nr	things_category_nr	things_image_nr	things_exemplar_nr	subcondition	repetition	run	onset	duration	response_mapping_flip_h	response_mapping_flip_v	onset_flip	offset_flip	keypresses	response	response_txt	error	response_confidence	response_time	duration_flip	ran	order	session_trial_time	atypical	atypical_log	exclude_session	delay_days	delay_seconds	trials_since_lastrep
06	ses-012	1	images_fmri/steamroller/steamroller_03n.jpg	seen	7215	602	3	None	1546.0	21841.0	3.0	seen-between	2	5	3.0	2.98	True	False	2.98856782913208	5.953224897384644	[['x', 5.515883922576904]]	2.0	seen	False	True	2.5158839225769043	2.9646570682525635	1.0	0.0	1625687240.5704	False		False	14.0	0.0	401.0
06	ses-012	2	images_fmri/guardrail/guardrail_03s.jpg	seen	3507	293	3	None	721.0	10338.0	3.0	seen-within	2	5	7.47	2.98	True	False	7.449577808380127	10.43602991104126	[['x', 8.565757989883423]]	2.0	seen	False	True	1.095757989883423	2.986452102661133	1.0	1.0	1625687245.0314	False		False	0.0	1015.237900018692	156.0
06	ses-012	3	images_fmri/pill/pill_03s.jpg	unseen	5595	467	3	None	1175.0	16716.0	3.0	unseen-within	1	5	11.94	2.98	False	False	11.920683860778809	14.900622844696043	[['y', 14.110577821731567]]	-2.0	unseen	False	True	2.170577821731568	2.9799389839172363	1.0	2.0	1625687249.5025	False		False			
06	ses-012	4	images_fmri/blanket/blanket_03s.jpg	seen	699	59	3	None	137.0	2090.0	3.0	seen-between-within	3	5	16.41	2.98	False	False	16.38700580596924	19.36716198921204	[['x', 17.22610902786255]]	2.0	seen	False	True	0.8161090278625487	2.980156183242798	1.0	3.0	1625687253.9688	False		False	0.0	719.1656999588013	115.0
06	ses-012	5	images_fmri/rat/rat_03s.jpg	unseen	6147	513	3	None	1286.0	18303.0	3.0	unseen-within	1	5	20.88	2.98	False	True	20.86997389793396	23.83725094795227	[['b', 22.803848028182983]]	2.0	seen	True	True	1.9238480281829844	2.9672770500183105	1.0	4.0	1625687258.4518	False		False			
06	ses-012	6	images_fmri/tiger/tiger_03s.jpg	seen	7719	644	3	None	1660.0	23429.0	3.0	seen-within	2	5	25.35	2.98	True	False	25.333452939987183	28.31993293762207	[['x', 26.270004987716675]]	2.0	seen	False	True	0.9200049877166734	2.986479997634888	1.0	5.0	1625687262.9153	False		False	0.0	705.7489998340607	112.0
06	ses-012	7	images_fmri/blueberry/blueberry_03s.jpg	seen	771	65	3	None	150.0	2290.0	3.0	seen-within	2	5	29.82	2.98	False	True	29.803881883621216	32.78285598754883	[['b', 30.963512897491455]]	2.0	seen	False	True	1.1435128974914548	2.9789741039276123	1.0	6.0	1625687267.3857	False		False	0.0	160.447900056839	12.0
06	ses-012	8	images_fmri/dice/dice_03s.jpg	seen	2403	201	3	None	487.0	7041.0	3.0	seen-between	2	5	34.29	2.98	False	False	34.27005696296692	37.24998688697815	[['y', 36.30040502548218]]	-2.0	unseen	True	True	2.0104050254821786	2.9799299240112305	1.0	7.0	1625687271.8519	False		False	14.0	0.0	334.0
06	ses-012	9	images_fmri/stalagmite/stalagmite_03s.jpg	seen	7155	597	3	None	1535.0	21692.0	3.0	seen-within	2	5	38.76	2.98	True	False	38.73455786705017	41.72000288963318	[['x', 39.712092876434326]]	2.0	seen	False	True	0.9520928764343282	2.985445022583008	1.0	8.0	1625687276.3164	False		False	0.0	357.1226999759674	56.0
06	ses-012	10	images_fmri/cactus/cactus_03s.jpg	seen	1215	102	3	None	236.0	3508.0	3.0	seen-within-between	3	5	43.23	2.98	True	True	43.219568967819214	46.18493700027466	[['b', 44.46979784965515]]	2.0	seen	False	True	1.2397978496551545	2.9653680324554443	1.0	9.0	1625687280.8014	False		False	14.0	0.0	262.0
06	ses-012	11	images_fmri/snowboard/snowboard_03s.jpg	unseen	6915	577	3	None	1482.0	20992.0	3.0	unseen-between	1	5	47.7	2.98	False	True	47.68773078918457	50.66548085212708	[['y', 50.07377099990845]]	-2.0	unseen	False	True	2.3737709999084444	2.977750062942505	1.0	10.0	1625687285.2695	False		False			
06	ses-012	12	images_fmri/credit_card/credit_card_03s.jpg	seen	2175	182	3	None	439.0	6341.0	3.0	seen-between	2	5	52.17	2.98	False	True	52.14857792854309	55.13333702087402	[['y', 54.59472703933716]]	-2.0	unseen	True	True	2.4247270393371565	2.9847590923309326	1.0	11.0	1625687289.7304	False		False	14.0	0.0	278.0
06	ses-012	13	images_fmri/wallpaper/wallpaper_03s.jpg	seen	8283	691	3	None	1778.0	25063.0	3.0	seen-within-between	3	5	56.64	2.98	False	True	56.61589980125427	59.59960293769837	[['b', 58.22032594680786]]	2.0	seen	False	True	1.5803259468078608	2.983703136444092	1.0	12.0	1625687294.1977	False		False	14.0	0.0	388.0
06	ses-012	14	images_fmri/rhubarb/rhubarb_03s.jpg	unseen	6255	522	3	None	1308.0	18620.0	3.0	unseen-within	1	5	61.11	2.98	False	True	61.08316087722778	64.06504487991333	[['y', 63.371325969696045]]	-2.0	unseen	False	True	2.261325969696045	2.981884002685547	1.0	13.0	1625687298.6650	False		False			
06	ses-012	15	images_fmri/firetruck/firetruck_03s.jpg	seen	2943	246	3	None	597.0	8628.0	3.0	seen-between	2	5	65.58	2.98	False	False	65.5659339427948	68.5327479839325	[['b', 68.55060982704163]]	-1.0	unseen	True	False	2.970609827041628	2.9668140411376958	1.0	14.0	1625687303.1477	False		False	14.0	0.0	437.0
06	ses-012	16	images_fmri/grenade/grenade_03s.jpg	seen	3459	289	3	None	714.0	10240.0	3.0	seen-between	2	5	70.05	2.98	True	True	70.03165698051453	73.01293182373047	[['a', 71.60152292251587]]	-2.0	unseen	True	True	1.551522922515872	2.9812748432159424	1.0	15.0	1625687307.6135	False		False	14.0	0.0	311.0
06	ses-012	17	images_fmri/wig/wig_03s.jpg	seen	8475	707	3	None	1817.0	25582.0	3.0	seen-within	2	5	74.52	2.98	True	True	74.49674081802368	77.47931599617004	[['b', 75.60872793197632]]	2.0	seen	False	True	1.0887279319763223	2.9825751781463623	1.0	16.0	1625687312.0786	False		False	0.0	294.5367999076843	42.0
06	ses-012	18	images_fmri/map/map_03s.jpg	seen	4623	386	3	None	971.0	13841.0	3.0	seen-within-between	3	5	78.99	2.98	True	False	78.96316289901733	81.94596290588379	[['y', 81.49116396903992]]	1.0	seen	False	False	2.501163969039922	2.982800006866455	1.0	17.0	1625687316.5450	False		False	14.0	0.0	442.0
06	ses-012	19	images_fmri/flower/flower_03s.jpg	unseen	3027	253	3	None	620.0	8940.0	3.0	unseen-between	1	5	83.46	2.98	True	False	83.42973399162292	86.41304779052734	[['a', 84.75475096702576]]	-2.0	unseen	False	True	1.294750967025763	2.983313798904419	1.0	18.0	1625687321.0115	False		False			
06	ses-012	20	images_fmri/antelope/antelope_03n.jpg	seen	147	13	3	None	27.0	370.0	3.0	seen-within	2	5	87.92999999999998	2.98	False	False	87.91249799728394	90.8790237903595	[['x', 89.59516382217407]]	2.0	seen	False	True	1.665163822174094	2.966525793075561	1.0	19.0	1625687325.4943	False		False	0.0	759.3948998451233	124.0
06	ses-012	21	images_fmri/acorn/acorn_03s.jpg	seen	3	1	3	None	4.0	45.0	3.0	seen-within	2	5	92.4	2.98	False	True	92.37941980361938	95.36233186721802	[['b', 93.48213386535645]]	2.0	seen	False	True	1.0821338653564396	2.982912063598633	1.0	20.0	1625687329.9612	False		False	0.0	437.5848000049591	74.0
06	ses-012	22	images_fmri/tree_trunk/tree_trunk_03s.jpg	seen	7995	667	3	None	1710.0	24116.0	3.0	seen-within-between	3	5	96.87	2.98	False	True	96.84629893302916	99.828871011734	[['y', 98.31956386566162], ['y', 99.0307228565216], ['b', 99.84644985198975], ['b', 100.37643599510193]]	-2.0	unseen	True	True	1.4495638656616163	2.982572078704834	1.0	21.0	1625687334.4281	False		False	14.0	0.0	494.0
06	ses-012	23	images_fmri/snowplow/snowplow_03s.jpg	seen	6927	578	3	None	1485.0	21028.0	3.0	seen-between	2	5	101.34	2.98	False	False	101.31212091445924	104.29636883735655	[['a', 103.36875486373901]]	1.0	seen	False	False	2.0287548637390103	2.984247922897339	1.0	22.0	1625687338.8939	False		False	14.0	0.0	503.0
06	ses-012	24	images_fmri/crutch/crutch_03s.jpg	unseen	2247	188	3	None	453.0	6545.0	3.0	unseen-between	1	5	105.81	2.98	True	True	105.78386187553406	108.7640368938446	[['a', 107.44609498977661]]	-2.0	unseen	False	True	1.636094989776609	2.980175018310547	1.0	23.0	1625687343.3657	False		False			
06	ses-012	25	images_fmri/stopwatch/stopwatch_03s.jpg	unseen	7251	605	3	None	1563.0	22072.0	3.0	unseen-within	1	5	110.28	2.98	True	True	110.26680588722228	113.23325181007384	[['a', 112.46414303779602]]	-2.0	unseen	False	True	2.18414303779602	2.9664459228515625	1.0	24.0	1625687347.8486	False		False			
06	ses-012	26	images_fmri/cotton_candy/cotton_candy_03s.jpg	unseen	2067	173	3	None	422.0	6066.0	3.0	unseen-between	1	5	114.75	2.98	False	True	114.73591685295104	117.71372485160828	[['y', 116.67225289344788]]	-2.0	unseen	False	True	1.922252893447876	2.9778079986572266	1.0	25.0	1625687352.3177	False		False			
06	ses-012	27	images_fmri/raccoon/raccoon_03s.jpg	seen	6063	506	3	None	1267.0	18053.0	3.0	seen-within-between	3	5	119.22	2.98	True	False	119.20238494873048	122.17968678474426							2.977301836013794	1.0	26.0	1625687356.7842	False		False	14.0	0.0	337.0
06	ses-012	28	images_fmri/steamroller/steamroller_03n.jpg	seen	7215	602	3	None	1546.0	21841.0	3.0	seen-between-within	3	5	123.69	2.98	True	False	123.66269278526306	126.64564990997314	[['x', 125.43587303161621]]	2.0	seen	False	True	1.7458730316162132	2.982957124710083	1.0	27.0	1625687361.2445	False		False	0.0	120.67409992218018	27.0
06	ses-012	29	images_fmri/ribbon/ribbon_03s.jpg	unseen	6267	523	3	None	1309.0	18633.0	3.0	unseen-within	1	5	128.16	2.98	True	False	128.13120484352112	131.11233592033386	[['a', 130.26905703544617]]	-2.0	unseen	False	True	2.1090570354461704	2.981131076812744	1.0	28.0	1625687365.7130	False		False			
06	ses-012	30	images_fmri/chess_piece/chess_piece_03s.jpg	seen	1635	137	3	None	318.0	4618.0	3.0	seen-between	2	5	132.63	2.98	False	False	132.6147677898407	135.5791039466858	[['y', 134.88232493400574]]	-2.0	unseen	True	True	2.252324934005742	2.9643361568450928	1.0	29.0	1625687370.1966	False		False	14.0	0.0	348.0
06	ses-012	31	images_fmri/snowplow/snowplow_03s.jpg	seen	6927	578	3	None	1485.0	21028.0	3.0	seen-between-within	3	5	137.1	2.98	False	False	137.0789909362793	140.06332302093506	[['x', 137.9819598197937]]	2.0	seen	False	True	0.8819598197937069	2.9843320846557617	1.0	30.0	1625687374.6608	False		False	0.0	35.766900062561035	8.0
06	ses-012	32	images_fmri/sprinkler/sprinkler_03s.jpg	seen	7107	593	3	None	1524.0	21543.0	3.0	seen-between-within	3	5	141.57	2.98	True	False	141.55167388916016	144.53485679626465	[['x', 142.5343599319458]]	2.0	seen	False	True	0.9643599319458076	2.983182907104492	1.0	31.0	1625687379.1335	False		False	0.0	433.10840010643005	73.0
06	ses-012	33	images_fmri/rhubarb/rhubarb_03s.jpg	seen	6255	522	3	None	1308.0	18620.0	3.0	seen-within	2	5	146.04	2.98	True	True	146.01369380950928	148.99532389640808	[['b', 147.7748739719391]]	2.0	seen	False	True	1.7348739719390949	2.981630086898804	1.0	32.0	1625687383.5955	False		False	0.0	84.93050003051758	19.0
06	ses-012	34	images_fmri/meat_grinder/meat_grinder_03s.jpg	unseen	4719	394	3	None	989.0	14086.0	3.0	unseen-between	1	5	150.51	2.98	False	False	150.50134086608887	153.46209692955017	[['y', 153.45702505111694]]	-2.0	unseen	False	True	2.9470250511169525	2.960756063461304	1.0	33.0	1625687388.0832	False		False			
06	ses-012	35	images_fmri/piano/piano_03n.jpg	seen	5535	462	3	None	1166.0	16588.0	3.0	seen-within	2	5	154.98	2.98	False	True	154.96263480186462	157.9451048374176	[['b', 156.46177697181702]]	2.0	seen	False	True	1.4817769718170268	2.9824700355529785	1.0	34.0	1625687392.5444	False		False	0.0	1207.4646999835968	199.0
06	ses-012	36	images_fmri/hamburger/hamburger_03s.jpg	seen	3579	299	3	None	741.0	10621.0	3.0	seen-within	2	5	159.45	2.98	True	True	159.4296510219574	162.4183588027954	[['b', 160.3737280368805]]	2.0	seen	False	True	0.9237280368805044	2.9887077808380127	1.0	35.0	1625687397.0115	False		False	0.0	777.2785999774933	128.0
06	ses-012	37	images_fmri/mistletoe/mistletoe_03s.jpg	seen	4827	403	3	None	1008.0	14363.0	3.0	seen-between	2	5	163.92	2.98	False	False	163.89719080924988	166.8782479763031	[['a', 166.43081092834473]]	1.0	seen	False	False	2.510810928344739	2.9810571670532227	1.0	36.0	1625687401.4790	False		False	14.0	0.0	444.0
06	ses-012	38	images_fmri/joystick/joystick_03s.jpg	unseen	4035	337	3	None	853.0	12202.0	3.0	unseen-between	1	5	168.39	2.98	True	False	168.36269283294678	171.346284866333	[['a', 170.0303349494934]]	-2.0	unseen	False	True	1.6403349494934218	2.9835920333862305	1.0	37.0	1625687405.9445	False		False			
06	ses-012	39	images_fmri/hand/hand_03s.jpg	seen	3627	303	3	None	745.0	10671.0	3.0	seen-between-within	3	5	172.86	2.98	False	False	172.8463008403778	175.8147509098053	[['x', 173.79990482330322]]	2.0	seen	False	True	0.939904823303209	2.9684500694274902	1.0	38.0	1625687410.4281	False		False	0.0	375.0081000328064	60.0
06	ses-012	40	images_fmri/kite/kite_03s.jpg	seen	4143	346	3	None	875.0	12526.0	3.0	seen-between-within	3	5	177.32999999999996	2.98	True	True	177.31368589401245	180.29572200775144	[['b', 178.38404893875122]]	2.0	seen	False	True	1.054048938751265	2.9820361137390137	1.0	39.0	1625687414.8955	False		False	0.0	544.8729999065399	98.0
06	ses-012	41	images_fmri/tattoo/tattoo_03s.jpg	unseen	7575	632	3	None	1630.0	23013.0	3.0	unseen-within	1	5	181.8	2.98	True	True	181.78185200691223	184.7611539363861	[['a', 184.11397695541382]]	-2.0	unseen	False	True	2.313976955413807	2.979301929473877	1.0	40.0	1625687419.3637	False		False			
06	ses-012	42	images_fmri/computer_screen/computer_screen_03s.jpg	unseen	1971	165	3	None	396.0	5692.0	3.0	unseen-within	1	5	186.27	2.98	True	False	186.2454409599304	189.227618932724	[['a', 189.0250849723816]]	-2.0	unseen	False	True	2.7550849723815816	2.982177972793579	1.0	41.0	1625687423.8273	False		False			
06	ses-012	43	images_fmri/hovercraft/hovercraft_03s.jpg	seen	3879	324	3	None	809.0	11565.0	3.0	seen-within-between	3	5	190.74	2.98	False	False	190.71259689331052	193.6954908370972	[['y', 193.04977583885193]]	-2.0	unseen	True	True	2.30977583885192	2.982893943786621	1.0	42.0	1625687428.2944	False		False	14.0	0.0	420.0
06	ses-012	44	images_fmri/rattle/rattle_03s.jpg	unseen	6159	514	3	None	1288.0	18328.0	3.0	unseen-between	1	5	195.21	2.98	False	True	195.19433188438416	198.1621417999268	[['y', 197.81359386444092]]	-2.0	unseen	False	True	2.60359386444091	2.9678099155426025	1.0	43.0	1625687432.7761	False		False			
06	ses-012	45	images_fmri/chess_piece/chess_piece_03s.jpg	seen	1635	137	3	None	318.0	4618.0	3.0	seen-between-within	3	5	199.68	2.98	False	True	199.66069889068604	202.64413690567017	[['b', 200.87552499771118]]	2.0	seen	False	True	1.1955249977111748	2.983438014984131	1.0	44.0	1625687437.2425	False		False	0.0	67.04590010643005	15.0
06	ses-012	46	images_fmri/oar/oar_03s.jpg	unseen	5103	426	3	None	1069.0	15197.0	3.0	unseen-between	1	5	204.15	2.98	False	False	204.1277289390564	207.1106128692627	[['y', 206.02507781982422]]	-2.0	unseen	False	True	1.875077819824213	2.982883930206299	1.0	45.0	1625687441.7095	False		False			
06	ses-012	47	images_fmri/smoke_alarm/smoke_alarm_03s.jpg	seen	6867	573	3	None	1474.0	20879.0	3.0	seen-within-between	3	5	208.62	2.98	True	True	208.5949029922485	211.57843494415283	[['a', 211.5978569984436]]	-2.0	unseen	True	True	2.977856998443599	2.983531951904297	1.0	46.0	1625687446.1767	False		False	14.0	0.0	306.0
06	ses-012	48	images_fmri/grenade/grenade_03s.jpg	seen	3459	289	3	None	714.0	10240.0	3.0	seen-between-within	3	5	213.09	2.98	True	False	213.0625069141388	216.04532980918884	[['x', 214.11858201026917]]	2.0	seen	False	True	1.0285820102691616	2.982822895050049	1.0	47.0	1625687450.6443	False		False	0.0	143.03079986572266	32.0
06	ses-012	49	images_fmri/water_fountain/water_fountain_03s.jpg	seen	8379	699	3	None	1791.0	25236.0	3.0	seen-between-within	3	5	217.56	2.98	False	True	217.5446770191193	220.51009583473208	[['b', 218.85233092308044]]	2.0	seen	False	True	1.292330923080442	2.965418815612793	1.0	48.0	1625687455.1265	False		False	0.0	455.4668998718262	78.0
06	ses-012	50	images_fmri/mast/mast_03s.jpg	unseen	4683	391	3	None	982.0	13994.0	3.0	unseen-between	1	5	222.03	2.98	True	True	222.01215887069705	224.99576878547668	[['a', 225.11058592796326]]	-2.0	unseen	False	True	3.080585927963256	2.983609914779663	1.0	49.0	1625687459.5940	False		False			
06	ses-012	51	images_fmri/melon/melon_03s.jpg	unseen	4743	396	3	None	995.0	14165.0	3.0	unseen-within	1	5	226.5	2.98	False	False	226.47906398773196	229.46116089820865	[['y', 229.04602193832397]]	-2.0	unseen	False	True	2.5460219383239746	2.982096910476685	1.0	50.0	1625687464.0609	False		False			
06	ses-012	52	images_fmri/bungee/bungee_03s.jpg	unseen	1131	95	3	None	222.0	3319.0	3.0	unseen-between	1	5	230.97	2.98	True	False	230.9446349143982	233.92645978927607	[['a', 233.44928193092346]]	-2.0	unseen	False	True	2.479281930923463	2.9818248748779297	1.0	51.0	1625687468.5264	False		False			
06	ses-012	53	images_fmri/crystal1/crystal1_03s.jpg	unseen	2259	189	3	None	455.0	6571.0	3.0	unseen-between	1	5	235.44	2.98	True	False	235.41033601760864	238.39297699928284	[['a', 237.29582595825195]]	-2.0	unseen	False	True	1.8558259582519556	2.9826409816741943	1.0	52.0	1625687472.9921	False		False			
06	ses-012	54	images_fmri/warthog/warthog_03s.jpg	seen	8331	695	3	None	1782.0	25118.0	3.0	seen-within	2	5	239.91	2.98	True	True	239.89500284194943	242.86098384857175	[['b', 240.96451091766357]]	2.0	seen	False	True	1.0545109176635776	2.9659810066223145	1.0	53.0	1625687477.4768	False		False	0.0	366.0706000328064	58.0
06	ses-012	55	images_fmri/pepper1/pepper1_03s.jpg	seen	5499	459	3	None	1151.0	16372.0	3.0	seen-within-between	3	5	244.38	2.98	True	True	244.3611099720001	247.34279584884644	[['b', 246.83384490013123]]	2.0	seen	False	True	2.45384490013123	2.981685876846313	1.0	54.0	1625687481.9429	False		False	14.0	0.0	297.0
06	ses-012	56	images_fmri/hairbrush/hairbrush_03s.jpg	unseen	3555	297	3	None	735.0	10538.0	3.0	unseen-between	1	5	248.85	2.98	True	True	248.826180934906	251.80933380126956	[['a', 251.36633682250977]]	-2.0	unseen	False	True	2.5163368225097718	2.9831528663635254	1.0	55.0	1625687486.4080	False		False			
06	ses-012	57	images_fmri/apple/apple_03s.jpg	seen	183	16	3	None	31.0	436.0	3.0	seen-between-within	3	5	253.32	2.98	False	True	253.293242931366	256.28290486335754	[['b', 254.4571349620819]]	2.0	seen	False	True	1.137134962081916	2.989661931991577	1.0	56.0	1625687490.8751	False		False	0.0	817.4921998977661	137.0
06	ses-012	58	images_fmri/binoculars/binoculars_03s.jpg	seen	627	53	3	None	128.0	1961.0	3.0	seen-between-within	3	5	257.79	2.98	False	False	257.7615778446197	260.7426669597626	[['x', 259.8788778781891]]	2.0	seen	False	True	2.0888778781890665	2.9810891151428223	1.0	57.0	1625687495.3434	False		False	0.0	1301.318099975586	220.0
06	ses-012	59	images_fmri/mistletoe/mistletoe_03s.jpg	seen	4827	403	3	None	1008.0	14363.0	3.0	seen-between-within	3	5	262.26	2.98	False	True	262.25128197669983	265.2092339992523	[['b', 264.7980840206146]]	2.0	seen	False	True	2.538084020614633	2.9579520225524902	1.0	58.0	1625687499.8331	False		False	0.0	98.35409998893738	22.0
06	ses-012	60	images_fmri/tattoo/tattoo_03s.jpg	seen	7575	632	3	None	1630.0	23013.0	3.0	seen-within	2	5	266.73	2.98	True	True	266.7110929489136	269.6924569606781	[['b', 269.22835183143616]]	2.0	seen	False	True	2.498351831436139	2.9813640117645264	1.0	59.0	1625687504.2929	False		False	0.0	84.92920017242432	19.0
