subject	session	TrialNumber	image_path	condition	image_nr	category_nr	exemplar_nr	test_image_nr	things_category_nr	things_image_nr	things_exemplar_nr	subcondition	repetition	run	onset	duration	response_mapping_flip_h	response_mapping_flip_v	onset_flip	offset_flip	keypresses	response	response_txt	error	response_confidence	response_time	duration_flip	ran	order	session_trial_time	atypical	atypical_log	exclude_session	delay_days	delay_seconds	trials_since_lastrep
01	ses-008	1	images_fmri/bus/bus_04n.jpg	seen	1180	99	4	None	227.0	3383.0	4.0	seen-between-within	3	6	3.0	2.98	False	False	2.9886040687561035	5.9667840003967285	[['b', 5.2024760246276855]]	-1.0	unseen	True	False	2.202476024627685	2.978179931640625	1.0	0.0	1622671100.6555	False		False	0.0	276.4128999710083	41.0
01	ses-008	2	images_fmri/buggy/buggy_04s.jpg	unseen	1084	91	4	None	214.0	3213.0	4.0	unseen-between	1	6	7.47	2.98	True	False	7.454874992370605	10.433398008346558	[['b', 9.00621485710144]]	-1.0	unseen	False	False	1.536214857101441	2.978523015975952	1.0	1.0	1622671105.1218	False		False			
01	ses-008	3	images_fmri/donut/donut_04s.jpg	unseen	2524	211	4	None	506.0	7313.0	4.0	unseen-between	1	6	11.94	2.98	True	True	11.934730052947998	14.899201154708862	[['x', 13.9738609790802]]	-1.0	unseen	False	False	2.0338609790802007	2.9644711017608643	1.0	2.0	1622671109.6017	False		False			
01	ses-008	4	images_fmri/bandage/bandage_04s.jpg	seen	376	32	4	None	67.0	996.0	4.0	seen-within-between	3	6	16.41	2.98	False	True	16.40381097793579	19.36946511268616	[['x', 17.995272874832153]]	-1.0	unseen	True	False	1.5852728748321532	2.965654134750366	1.0	3.0	1622671114.0707	False		False	7.0	0.0	379.0
01	ses-008	5	images_fmri/mousetrap/mousetrap_04n.jpg	unseen	4948	413	4	None	1030.0	14682.0	4.0	unseen-between	1	6	20.88	2.98	True	False	20.87100100517273	23.84950613975525	[['b', 23.136732816696167]]	-1.0	unseen	False	False	2.256732816696168	2.9785051345825195	1.0	4.0	1622671118.5379	False		False			
01	ses-008	6	images_fmri/polaroid/polaroid_04s.jpg	seen	5788	483	4	None	1213.0	17244.0	4.0	seen-within	2	6	25.35	2.98	True	True	25.33641004562378	28.316708087921143	[['x', 28.4843590259552]]	-1.0	unseen	True	False	3.1343590259551988	2.9802980422973637	1.0	5.0	1622671123.0033	False		False	0.0	1317.6052000522614	203.0
01	ses-008	7	images_fmri/dog/dog_04s.jpg	unseen	2452	205	4	None	496.0	7167.0	4.0	unseen-between	1	6	29.82	2.98	True	False	29.798773050308228	32.78215003013611	[['b', 31.469342947006226]]	-1.0	unseen	False	False	1.6493429470062253	2.983376979827881	1.0	6.0	1622671127.4657	False		False			
01	ses-008	8	images_fmri/tadpole/tadpole_04s.jpg	seen	7516	627	4	None	1615.0	22804.0	4.0	seen-within	2	6	34.29	2.98	False	False	34.28484797477722	37.24909019470215	[['x', 36.97461986541748]]	2.0	seen	False	True	2.6846198654174813	2.9642422199249268	1.0	7.0	1622671131.9518	False		False	0.0	1483.0114002227783	240.0
01	ses-008	9	images_fmri/porcupine/porcupine_04s.jpg	seen	5848	488	4	None	1227.0	17456.0	4.0	seen-between	2	6	38.76	2.98	True	True	38.7487850189209	41.73206305503845	[['x', 41.231541872024536]]	-1.0	unseen	True	False	2.471541872024538	2.9832780361175537	1.0	8.0	1622671136.4157	False		False	7.0	0.0	566.0
01	ses-008	10	images_fmri/flower/flower_04s.jpg	seen	3028	253	4	None	620.0	8941.0	4.0	seen-between	2	6	43.23	2.98	False	True	43.216825008392334	46.19865202903748	[['x', 45.03831100463867]]	-1.0	unseen	True	False	1.808311004638675	2.9818270206451416	1.0	9.0	1622671140.8838	False		False	7.0	0.0	559.0
01	ses-008	11	images_fmri/coleslaw/coleslaw_04s.jpg	unseen	1924	161	4	None	387.0	5569.0	4.0	unseen-within	1	6	47.7	2.98	False	True	47.6868691444397	50.66551303863525	[['x', 50.217296838760376]]	-1.0	unseen	False	False	2.517296838760373	2.9786438941955566	1.0	10.0	1622671145.3538	False		False			
01	ses-008	12	images_fmri/scarecrow/scarecrow_04s.jpg	seen	6496	542	4	None	1377.0	19557.0	4.0	seen-between	2	6	52.17	2.98	True	True	52.15141415596008	55.13168215751648	[['x', 53.920347929000854]]	-1.0	unseen	True	False	1.7503479290008528	2.9802680015563965	1.0	11.0	1622671149.8183	False		False	7.0	0.0	339.0
01	ses-008	13	images_fmri/flower/flower_04s.jpg	seen	3028	253	4	None	620.0	8941.0	4.0	seen-between-within	3	6	56.64	2.98	True	False	56.63546919822693	59.60096597671509	[['x', 57.85377097129822]]	2.0	seen	False	True	1.2137709712982172	2.965496778488159	1.0	12.0	1622671154.3024	False		False	0.0	13.418600082397461	3.0
01	ses-008	14	images_fmri/tongs/tongs_04s.jpg	seen	7804	651	4	None	1675.0	23645.0	4.0	seen-within	2	6	61.11	2.98	True	True	61.10131597518921	64.08222913742065	[['y', 62.58545684814453]]	1.0	seen	False	False	1.4754568481445318	2.9809131622314453	1.0	13.0	1622671158.7682	False		False	0.0	718.3855998516083	114.0
01	ses-008	15	images_fmri/table/table_04s.jpg	seen	7480	624	4	None	1609.0	22728.0	4.0	seen-between	2	6	65.58	2.98	False	False	65.56885814666748	68.54816699028015	[['b', 68.00509190559387]]	-1.0	unseen	True	False	2.4250919055938738	2.979308843612671	1.0	14.0	1622671163.2358	False		False	7.0	0.0	596.0
01	ses-008	16	images_fmri/mirror/mirror_04s.jpg	seen	4804	401	4	None	1006.0	14335.0	4.0	seen-within	2	6	70.05	2.98	False	False	70.03331708908081	73.01465320587158	[['x', 71.47050285339355]]	2.0	seen	False	True	1.4205028533935575	2.9813361167907715	1.0	15.0	1622671167.7002	False		False	0.0	664.735100030899	102.0
01	ses-008	17	images_fmri/hammock/hammock_04s.jpg	seen	3604	301	4	None	743.0	10646.0	4.0	seen-between	2	6	74.52	2.98	False	True	74.50313305854797	77.4815320968628	[['x', 76.81735587120056]]	-1.0	unseen	True	False	2.297355871200565	2.97839903831482	1.0	16.0	1622671172.1701	False		False	7.0	0.0	471.0
01	ses-008	18	images_fmri/porcupine/porcupine_04s.jpg	seen	5848	488	4	None	1227.0	17456.0	4.0	seen-between-within	3	6	78.99	2.98	False	True	78.98489212989807	81.95159411430359	[['b', 79.94646883010864]]	2.0	seen	False	True	0.9564688301086476	2.9667019844055176	1.0	17.0	1622671176.6518	False		False	0.0	40.2360999584198	9.0
01	ses-008	19	images_fmri/tamale/tamale_04n.jpg	seen	7552	630	4	None	1619.0	22858.0	4.0	seen-between-within	3	6	83.46	2.98	True	True	83.4516921043396	86.4308671951294	[['b', 84.99779081344604]]	2.0	seen	False	True	1.5377908134460512	2.979175090789795	1.0	18.0	1622671181.1186	False		False	0.0	374.742399930954	63.0
01	ses-008	20	images_fmri/boar/boar_04s.jpg	unseen	796	67	4	None	152.0	2318.0	4.0	unseen-between	1	6	87.92999999999998	2.98	True	True	87.91833114624023	90.89801120758057	[['x', 89.66891193389893]]	-1.0	unseen	False	False	1.7389119338989474	2.979680061340332	1.0	19.0	1622671185.5853	False		False			
01	ses-008	21	images_fmri/barrel/barrel_04s.jpg	unseen	412	35	4	None	77.0	1139.0	4.0	unseen-within	1	6	92.4	2.98	False	False	92.38480710983276	95.36398720741272	[['a', 94.96412587165833]]	1.0	seen	True	False	2.5641258716583195	2.979180097579956	1.0	20.0	1622671190.0517	False		False			
01	ses-008	22	images_fmri/gel/gel_04s.jpg	seen	3232	270	4	None	670.0	9600.0	4.0	seen-within-between	3	6	96.87	2.98	False	True	96.85272812843324	99.83119797706604	[['x', 99.48700594902039]]	-1.0	unseen	True	False	2.617005949020381	2.9784698486328125	1.0	21.0	1622671194.5197	False		False	7.0	0.0	631.0
01	ses-008	23	images_fmri/lemonade/lemonade_04s.jpg	unseen	4336	362	4	None	916.0	13095.0	4.0	unseen-within	1	6	101.34	2.98	True	True	101.33068203926086	104.2974181175232	[['x', 103.71692490577698]]	-1.0	unseen	False	False	2.376924905776974	2.966736078262329	1.0	22.0	1622671198.9976	False		False			
01	ses-008	24	images_fmri/towel_rack/towel_rack_04s.jpg	unseen	7900	659	4	None	1694.0	23901.0	4.0	unseen-within	1	6	105.81	2.98	True	False	105.7976620197296	108.780620098114	[['b', 107.65515089035034]]	-1.0	unseen	False	False	1.8451508903503395	2.9829580783843994	1.0	23.0	1622671203.4646	False		False			
01	ses-008	25	images_fmri/granola/granola_04s.jpg	seen	3376	282	4	None	702.0	10054.0	4.0	seen-within-between	3	6	110.28	2.98	True	True	110.26894807815552	113.24714016914368	[['x', 111.77444100379944]]	-1.0	unseen	True	False	1.4944410037994371	2.978192090988159	1.0	24.0	1622671207.9359	False		False	7.0	0.0	625.0
01	ses-008	26	images_fmri/lemonade/lemonade_04s.jpg	seen	4336	362	4	None	916.0	13095.0	4.0	seen-within	2	6	114.75	2.98	False	False	114.73425507545473	117.71442103385924	[['x', 116.06004691123962]]	2.0	seen	False	True	1.310046911239624	2.980165958404541	1.0	25.0	1622671212.4012	False		False	0.0	13.403599977493286	3.0
01	ses-008	27	images_fmri/pickle/pickle_04s.jpg	seen	5548	463	4	None	1168.0	16614.0	4.0	seen-between	2	6	119.22	2.98	False	True	119.19980216026306	122.1808590888977	[['x', 120.71728181838989]]	-1.0	unseen	True	False	1.4972818183898935	2.981056928634644	1.0	26.0	1622671216.8667	False		False	7.0	0.0	442.0
01	ses-008	28	images_fmri/stopwatch/stopwatch_04s.jpg	seen	7252	605	4	None	1563.0	22073.0	4.0	seen-between-within	3	6	123.69	2.98	True	False	123.68408298492432	126.6507740020752	[['y', 125.96634793281555]]	1.0	seen	False	False	2.276347932815554	2.966691017150879	1.0	27.0	1622671221.3510	False		False	0.0	2046.517100095749	322.0
01	ses-008	29	images_fmri/sombrero/sombrero_04s.jpg	seen	6976	582	4	None	1496.0	21169.0	4.0	seen-within-between	3	6	128.16	2.98	True	False	128.1517779827118	131.12998914718628	[['b', 129.40685296058655]]	-1.0	unseen	True	False	1.2468529605865513	2.9782111644744877	1.0	28.0	1622671225.8187	False		False	7.0	0.0	523.0
01	ses-008	30	images_fmri/clipboard/clipboard_04s.jpg	seen	1804	151	4	None	356.0	5151.0	4.0	seen-between-within	3	6	132.63	2.98	True	True	132.61614108085632	135.5968999862671	[['x', 134.81665897369385]]	-1.0	unseen	True	False	2.186658973693852	2.9807589054107666	1.0	29.0	1622671230.2831	False		False	0.0	856.9489998817444	145.0
01	ses-008	31	images_fmri/walrus/walrus_04s.jpg	unseen	8308	693	4	None	1780.0	25093.0	4.0	unseen-between	1	6	137.1	2.98	False	True	137.08361506462097	140.06298899650574	[['y', 138.6709668636322]]	-2.0	unseen	False	True	1.5709668636322078	2.9793739318847656	1.0	30.0	1622671234.7505	False		False			
01	ses-008	32	images_fmri/corn/corn_04s.jpg	unseen	2056	172	4	None	413.0	5930.0	4.0	unseen-between	1	6	141.57	2.98	False	True	141.5477900505066	144.53024816513062	[['x', 144.23288583755493]]	-1.0	unseen	False	False	2.6628858375549385	2.9824581146240234	1.0	31.0	1622671239.2147	False		False			
01	ses-008	33	images_fmri/jersey/jersey_04s.jpg	seen	4024	336	4	None	847.0	12109.0	4.0	seen-within-between	3	6	146.04	2.98	False	False	146.02953100204468	148.99726510047913	[['b', 147.9853539466858]]	-1.0	unseen	True	False	1.945353946685799	2.967734098434448	1.0	32.0	1622671243.6965	False		False	7.0	0.0	674.0
01	ses-008	34	images_fmri/scarecrow/scarecrow_04s.jpg	seen	6496	542	4	None	1377.0	19557.0	4.0	seen-between-within	3	6	150.51	2.98	True	False	150.50169610977173	153.48110914230347	[['x', 151.57759404182434]]	2.0	seen	False	True	1.06759404182435	2.9794130325317383	1.0	33.0	1622671248.1686	False		False	0.0	98.35030007362366	22.0
01	ses-008	35	images_fmri/revolver/revolver_04s.jpg	unseen	6232	520	4	None	1305.0	18577.0	4.0	unseen-between	1	6	154.98	2.98	False	False	154.9670991897583	157.94581818580627	[['b', 156.60956501960754]]	-1.0	unseen	False	False	1.6295650196075542	2.9787189960479736	1.0	34.0	1622671252.6340	False		False			
01	ses-008	36	images_fmri/table/table_04s.jpg	seen	7480	624	4	None	1609.0	22728.0	4.0	seen-between-within	3	6	159.45	2.98	True	True	159.43317317962646	162.4125909805298	[['b', 160.60500288009644]]	2.0	seen	False	True	1.155002880096447	2.9794178009033203	1.0	35.0	1622671257.1001	False		False	0.0	93.8643000125885	21.0
01	ses-008	37	images_fmri/confetti/confetti_04s.jpg	unseen	1984	166	4	None	397.0	5709.0	4.0	unseen-within	1	6	163.92	2.98	False	False	163.91602110862732	166.87947916984558	[['b', 165.8417489528656]]	-1.0	unseen	False	False	1.921748952865613	2.9634580612182617	1.0	36.0	1622671261.5829	False		False			
01	ses-008	38	images_fmri/peanut/peanut_04s.jpg	unseen	5416	452	4	None	1132.0	16117.0	4.0	unseen-between	1	6	168.39	2.98	False	False	168.38309717178345	171.36290407180786	[['b', 170.49802494049072]]	-1.0	unseen	False	False	2.1080249404907363	2.979806900024414	1.0	37.0	1622671266.0500	False		False			
01	ses-008	39	images_fmri/barrel/barrel_04s.jpg	seen	412	35	4	None	77.0	1139.0	4.0	seen-within	2	6	172.86	2.98	False	False	172.8496150970459	175.82949018478394	[['x', 173.88697385787964]]	2.0	seen	False	True	1.026973857879625	2.979875087738037	1.0	38.0	1622671270.5165	False		False	0.0	80.46479988098145	18.0
01	ses-008	40	images_fmri/kimono/kimono_04s.jpg	unseen	4132	345	4	None	874.0	12510.0	4.0	unseen-between	1	6	177.32999999999996	2.98	False	True	177.3140480518341	180.2952971458435	[['x', 178.90370297431946]]	-1.0	unseen	False	False	1.5737029743195023	2.9812490940093994	1.0	39.0	1622671274.9810	False		False			
01	ses-008	41	images_fmri/hairpin/hairpin_04s.jpg	seen	3568	298	4	None	738.0	10583.0	4.0	seen-between-within	3	6	181.8	2.98	False	False	181.78263998031616	184.76187705993647	[['x', 183.51808881759644]]	2.0	seen	False	True	1.7180888175964242	2.9792370796203613	1.0	40.0	1622671279.4496	False		False	0.0	1074.307499885559	170.0
01	ses-008	42	images_fmri/confetti/confetti_04s.jpg	seen	1984	166	4	None	397.0	5709.0	4.0	seen-within	2	6	186.27	2.98	True	True	186.264671087265	189.23386001586917	[['b', 187.35762882232666]]	2.0	seen	False	True	1.08762882232665	2.969188928604126	1.0	41.0	1622671283.9316	False		False	0.0	22.348700046539307	5.0
01	ses-008	43	images_fmri/sim_card/sim_card_04s.jpg	seen	6784	566	4	None	1447.0	20519.0	4.0	seen-between-within	3	6	190.74	2.98	False	False	190.7300190925598	193.7117750644684	[['x', 192.00401401519775]]	2.0	seen	False	True	1.2640140151977448	2.9817559719085693	1.0	42.0	1622671288.3969	False		False	0.0	508.8508999347687	93.0
01	ses-008	44	images_fmri/tent/tent_04s.jpg	unseen	7624	636	4	None	1644.0	23210.0	4.0	unseen-between	1	6	195.21	2.98	False	False	195.1980061531067	198.17849612236023	[['b', 196.66614699363708]]	-1.0	unseen	False	False	1.456146993637077	2.98048996925354	1.0	43.0	1622671292.8649	False		False			
01	ses-008	45	images_fmri/computer_screen/computer_screen_04s.jpg	unseen	1972	165	4	None	396.0	5693.0	4.0	unseen-between	1	6	199.68	2.98	False	True	199.6649730205536	202.6503620147705	[['x', 200.8960108757019]]	-1.0	unseen	False	False	1.2160108757018977	2.985388994216919	1.0	44.0	1622671297.3319	False		False			
01	ses-008	46	images_fmri/pickle/pickle_04s.jpg	seen	5548	463	4	None	1168.0	16614.0	4.0	seen-between-within	3	6	204.15	2.98	True	False	204.133905172348	207.1169090270996	[['x', 205.28833484649658]]	2.0	seen	False	True	1.1383348464965763	2.983003854751587	1.0	45.0	1622671301.8008	False		False	0.0	84.93410015106201	19.0
01	ses-008	47	images_fmri/bike/bike_04s.jpg	seen	616	52	4	None	124.0	1889.0	4.0	seen-within	2	6	208.62	2.98	False	True	208.6142370700836	211.5816969871521	[['x', 210.97027802467346]]	-1.0	unseen	True	False	2.3502780246734574	2.967459917068481	1.0	46.0	1622671306.2812	False		False	0.0	1921.356199979782	294.0
01	ses-008	48	images_fmri/contact_lens/contact_lens_04s.jpg	seen	1996	167	4	None	398.0	5721.0	4.0	seen-within	2	6	213.09	2.98	True	False	213.08187103271484	216.06397819519043	[['x', 214.30222988128662]]	2.0	seen	False	True	1.2122298812866177	2.982107162475586	1.0	47.0	1622671310.7488	False		False	0.0	388.16009998321533	66.0
01	ses-008	49	images_fmri/rhinoceros/rhinoceros_04s.jpg	seen	6244	521	4	None	1307.0	18609.0	4.0	seen-within	2	6	217.56	2.98	True	True	217.54963898658752	220.5279321670532	[['x', 219.87151885032654]]	-1.0	unseen	True	False	2.311518850326536	2.9782931804656982	1.0	48.0	1622671315.2166	False		False	0.0	839.0631999969482	141.0
01	ses-008	50	images_fmri/whale/whale_04s.jpg	unseen	8404	701	4	None	1805.0	25428.0	4.0	unseen-within	1	6	222.03	2.98	False	False	222.01244807243347	224.9942071437836	[['y', 224.44550895690918]]	-2.0	unseen	False	True	2.4155089569091786	2.9817590713500977	1.0	49.0	1622671319.6794	False		False			
01	ses-008	51	images_fmri/towel_rack/towel_rack_04s.jpg	seen	7900	659	4	None	1694.0	23901.0	4.0	seen-within	2	6	226.5	2.98	True	True	226.48154520988464	229.46604299545288	[['b', 227.5680868625641]]	2.0	seen	False	True	1.068086862564087	2.9844977855682373	1.0	50.0	1622671324.1485	False		False	0.0	120.68389987945557	27.0
01	ses-008	52	images_fmri/hammock/hammock_04s.jpg	seen	3604	301	4	None	743.0	10646.0	4.0	seen-between-within	3	6	230.97	2.98	True	False	230.96431398391724	233.92726111412048	[['x', 232.227383852005]]	2.0	seen	False	True	1.257383852005006	2.962947130203247	1.0	51.0	1622671328.6312	False		False	0.0	156.46110010147095	35.0
01	ses-008	53	images_fmri/wire_cutters/wire_cutters_04s.jpg	unseen	8524	711	4	None	1830.0	25772.0	4.0	unseen-between	1	6	235.44	2.98	False	True	235.43016505241397	238.41066813468933	[['x', 236.98046898841858]]	-1.0	unseen	False	False	1.5404689884185814	2.98050308227539	1.0	52.0	1622671333.0971	False		False			
01	ses-008	54	images_fmri/cherry/cherry_04n.jpg	seen	1624	136	4	None	317.0	4607.0	4.0	seen-within	2	6	239.91	2.98	True	False	239.89449620246887	242.8775010108948	[['b', 241.46412587165833]]	-1.0	unseen	True	False	1.5541258716583286	2.9830048084259038	1.0	53.0	1622671337.5614	False		False	0.0	428.38809990882874	75.0
01	ses-008	55	images_fmri/drum/drum_04s.jpg	unseen	2632	220	4	None	523.0	7591.0	4.0	unseen-between	1	6	244.38	2.98	True	True	244.36427903175357	247.34360718727112	[['x', 245.8550889492035]]	-1.0	unseen	False	False	1.4750889492034958	2.979328155517578	1.0	54.0	1622671342.0312	False		False			
01	ses-008	56	images_fmri/whale/whale_04s.jpg	seen	8404	701	4	None	1805.0	25428.0	4.0	seen-within	2	6	248.85	2.98	False	False	248.8327090740204	251.81573605537412	[['x', 249.98422288894653]]	2.0	seen	False	True	1.1342228889465389	2.98302698135376	1.0	55.0	1622671346.4996	False		False	0.0	26.820199966430664	6.0
01	ses-008	57	images_fmri/crayfish/crayfish_04s.jpg	seen	2152	180	4	None	435.0	6286.0	4.0	seen-between-within	3	6	253.32	2.98	False	False	253.31580209732056	256.27691411972046	[['a', 255.5221848487854]]	1.0	seen	False	False	2.202184848785407	2.9611120223999023	1.0	56.0	1622671350.9827	False		False	0.0	1244.175400018692	208.0
01	ses-008	58	images_fmri/camel/camel_04s.jpg	seen	1276	107	4	None	246.0	3642.0	4.0	seen-within-between	3	6	257.79	2.98	True	True	257.77955317497253	260.76025104522705	[['x', 259.7254378795624]]	-1.0	unseen	True	False	1.9354378795623572	2.9806978702545166	1.0	57.0	1622671355.4465	False		False	7.0	0.0	420.0
01	ses-008	59	images_fmri/coleslaw/coleslaw_04s.jpg	seen	1924	161	4	None	387.0	5569.0	4.0	seen-within	2	6	262.26	2.98	True	True	262.2450661659241	265.2309081554413	[['b', 263.280877828598]]	2.0	seen	False	True	1.0208778285980316	2.985841989517212	1.0	58.0	1622671359.9120	False		False	0.0	214.55819988250732	48.0
01	ses-008	60	images_fmri/jukebox/jukebox_04s.jpg	seen	4048	338	4	None	858.0	12269.0	4.0	seen-between-within	3	6	266.73	2.98	True	False	266.7153329849243	269.69869112968445	[['x', 267.8677999973297]]	2.0	seen	False	True	1.1377999973296935	2.983358144760132	1.0	59.0	1622671364.3823	False		False	0.0	607.1859998703003	115.0
