subject	session	TrialNumber	image_path	condition	image_nr	category_nr	exemplar_nr	test_image_nr	things_category_nr	things_image_nr	things_exemplar_nr	subcondition	repetition	run	onset	duration	response_mapping_flip_h	response_mapping_flip_v	onset_flip	offset_flip	keypresses	response	response_txt	error	response_confidence	response_time	duration_flip	ran	order	session_trial_time	atypical	atypical_log	exclude_session	delay_days	delay_seconds	trials_since_lastrep
03	ses-028	1	images_fmri/smoke_alarm/smoke_alarm_05s.jpg	seen	6869	573	5	None	1474.0	20881.0	5.0	seen-between-within	3	5	3.0	2.98	True	False	3.0001331283710897	5.966789666097611	[['x', 4.014686733018607]]	2.0	seen	False	True	1.014686733018607	2.966656537726521	1.0	0.0	3176731.5785	False		False	0.0	713.4505999996327	118.0
03	ses-028	2	images_fmri/pig/pig_05s.jpg	seen	5573	465	5	None	1171.0	16665.0	5.0	seen-within-between	3	5	7.47	2.98	True	True	7.466029737144709	10.449217065237464	[['b', 8.502573919016868], ['y', 9.050981065258384]]	2.0	seen	False	True	1.032573919016868	2.983187328092754	1.0	1.0	3176736.0443	False		False	7.0	0.0	252.0
03	ses-028	3	images_fmri/paper/paper_05s.jpg	seen	5333	445	5	None	1113.0	15833.0	5.0	seen-within	2	5	11.94	2.98	False	True	11.933109566103669	14.918932251166552	[['b', 12.784371457062662]]	2.0	seen	False	True	0.8443714570626621	2.9858226850628853	1.0	2.0	3176740.5114	False		False	0.0	1007.4371000002138	162.0
03	ses-028	4	images_fmri/beachball/beachball_05s.jpg	seen	461	39	5	None	100.0	1499.0	5.0	seen-between-within	3	5	16.41	2.98	False	False	16.403160725254565	19.38789596920833	[['x', 17.347188488114625]]	2.0	seen	False	True	0.9371884881146252	2.9847352439537644	1.0	3.0	3176744.9815	False		False	0.0	336.44120000023395	54.0
03	ses-028	5	images_fmri/donkey/donkey_05n.jpg	seen	2513	210	5	None	505.0	7297.0	5.0	seen-between	2	5	20.88	2.98	False	True	20.87254423135892	23.85101617313921	[['y', 22.591893195174634]]	-2.0	unseen	True	True	1.7118931951746357	2.978471941780299	1.0	4.0	3176749.4509	False		False	7.0	0.0	359.0
03	ses-028	6	images_fmri/typewriter/typewriter_05s.jpg	unseen	8093	675	5	None	1742.0	24551.0	5.0	unseen-between	1	5	25.35	2.98	True	False	25.3529704073444	28.321624937001616	[['a', 26.39173916913569]]	-2.0	unseen	False	True	1.0417391691356883	2.968654529657215	1.0	5.0	3176753.9313	False		False			
03	ses-028	7	images_fmri/necklace/necklace_05s.jpg	seen	5033	420	5	None	1055.0	15018.0	5.0	seen-within	2	5	29.82	2.98	False	True	29.8227618644014	32.80088692205027	[['b', 31.29136835411191]]	2.0	seen	False	True	1.4713683541119096	2.978125057648868	1.0	6.0	3176758.4011	False		False	0.0	193.41429999982938	22.0
03	ses-028	8	images_fmri/dashboard/dashboard_05s.jpg	seen	2345	196	5	None	476.0	6888.0	5.0	seen-between-within	3	5	34.29	2.98	True	True	34.288706817198545	37.27194219408557	[['b', 35.368223761208355]]	2.0	seen	False	True	1.0782237612083565	2.9832353768870234	1.0	7.0	3176762.8670	False		False	0.0	1260.6690000002272	198.0
03	ses-028	9	images_fmri/raft/raft_05s.jpg	unseen	6113	510	5	None	1276.0	18176.0	5.0	unseen-within	1	5	38.76	2.98	True	True	38.754687833134085	41.733630277216434	[['a', 40.22648311825469]]	-2.0	unseen	False	True	1.4664831182546934	2.978942444082349	1.0	8.0	3176767.3330	False		False			
03	ses-028	10	images_fmri/gauze/gauze_05s.jpg	seen	3209	268	5	None	665.0	9539.0	5.0	seen-between	2	5	43.23	2.98	True	False	43.22003572713584	46.20299941021949	[['a', 44.835721789393574]]	-2.0	unseen	True	True	1.6057217893935771	2.982963683083653	1.0	9.0	3176771.7984	False		False	7.0	0.0	518.0
03	ses-028	11	images_fmri/cymbal/cymbal_05s.jpg	seen	2333	195	5	None	469.0	6795.0	5.0	seen-within-between	3	5	47.7	2.98	True	False	47.70307232998312	50.66955866338685	[['b', 49.76762392418459]]	-1.0	unseen	True	False	2.067623924184588	2.9664863334037364	1.0	10.0	3176776.2814	False		False	7.0	0.0	258.0
03	ses-028	12	images_fmri/lion/lion_05s.jpg	seen	4433	370	5	None	934.0	13336.0	5.0	seen-between	2	5	52.17	2.98	False	False	52.17084118397906	55.14994107931852	[['y', 53.43314472818747]]	-2.0	unseen	True	True	1.26314472818747	2.979099895339459	1.0	11.0	3176780.7492	False		False	7.0	0.0	547.0
03	ses-028	13	images_fmri/puck/puck_05s.jpg	seen	5981	499	5	None	1246.0	17720.0	5.0	seen-within	2	5	56.64	2.98	False	True	56.63895847229287	59.61641145125032	[['b', 58.17459229938686]]	2.0	seen	False	True	1.5345922993868584	2.9774529789574444	1.0	12.0	3176785.2173	False		False	0.0	655.3363999999128	105.0
03	ses-028	14	images_fmri/prism/prism_05s.jpg	seen	5957	497	5	None	1242.0	17666.0	5.0	seen-between	2	5	61.11	2.98	False	True	61.104131657164544	64.08361573237926	[['y', 63.303653644397855]]	-2.0	unseen	True	True	2.193653644397856	2.979484075214714	1.0	13.0	3176789.6824	False		False	7.0	0.0	390.0
03	ses-028	15	images_fmri/birdhouse/birdhouse_05s.jpg	unseen	665	56	5	None	132.0	2025.0	5.0	unseen-within	1	5	65.58	2.98	True	True	65.58609914826229	68.5527794053778	[['a', 67.52536219730973]]	-2.0	unseen	False	True	1.945362197309734	2.966680257115513	1.0	14.0	3176794.1644	False		False			
03	ses-028	16	images_fmri/iron/iron_05s.jpg	unseen	3953	330	5	None	833.0	11908.0	5.0	unseen-within	1	5	70.05	2.98	False	False	70.05279489932582	73.03305641096085	[['y', 71.59103277418762]]	-2.0	unseen	False	True	1.5410327741876273	2.9802615116350357	1.0	15.0	3176798.6311	False		False			
03	ses-028	17	images_fmri/thermometer/thermometer_05s.jpg	unseen	7637	637	5	None	1647.0	23257.0	5.0	unseen-within	1	5	74.52	2.98	False	False	74.51894204830751	77.49945304403082	[['y', 75.7660070573911]]	-2.0	unseen	False	True	1.246007057391111	2.980510995723307	1.0	16.0	3176803.0973	False		False			
03	ses-028	18	images_fmri/cabbage/cabbage_05s.jpg	seen	1205	101	5	None	233.0	3471.0	5.0	seen-between	2	5	78.99	2.98	True	False	78.98691471014172	81.96594329411164	[['a', 80.24024276901037]]	-2.0	unseen	True	True	1.25024276901037	2.979028583969921	1.0	17.0	3176807.5652	False		False	7.0	0.0	397.0
03	ses-028	19	images_fmri/telescope/telescope_05n.jpg	seen	7601	634	5	None	1641.0	23167.0	5.0	seen-within	2	5	83.46	2.98	False	True	83.45338384015486	86.43604680011049	[['b', 84.44611172797158]]	2.0	seen	False	True	0.98611172797159	2.9826629599556327	1.0	18.0	3176812.0317	False		False	0.0	318.55970000009984	50.0
03	ses-028	20	images_fmri/silverware/silverware_05s.jpg	unseen	6773	565	5	None	1446.0	20507.0	5.0	unseen-between	1	5	87.92999999999998	2.98	False	True	87.93544334406033	90.89893250819296	[['y', 89.23733807215467]]	-2.0	unseen	False	True	1.3073380721546926	2.963489164132625	1.0	19.0	3176816.5138	False		False			
03	ses-028	21	images_fmri/microscope/microscope_05s.jpg	seen	4769	398	5	None	1000.0	14238.0	5.0	seen-within	2	5	92.4	2.98	True	True	92.40188593417406	95.38601955398916	[['b', 93.25989356124774]]	2.0	seen	False	True	0.8598935612477305	2.984133619815111	1.0	20.0	3176820.9802	False		False	0.0	1314.3168999999762	210.0
03	ses-028	22	images_fmri/pastry/pastry_05s.jpg	seen	5381	449	5	None	1125.0	16021.0	5.0	seen-between-within	3	5	96.87	2.98	False	False	96.8696894333698	99.851571502164	[['x', 97.77095876121894]]	2.0	seen	False	True	0.9009587612189308	2.9818820687942207	1.0	21.0	3176825.4480	False		False	0.0	926.9945000000298	144.0
03	ses-028	23	images_fmri/raft/raft_05s.jpg	seen	6113	510	5	None	1276.0	18176.0	5.0	seen-within	2	5	101.34	2.98	False	False	101.33758379006758	104.31956613110378	[['x', 102.42437360109761]]	2.0	seen	False	True	1.0843736010976102	2.9819823410362005	1.0	22.0	3176829.9159	False		False	0.0	62.582899999804795	14.0
03	ses-028	24	images_fmri/cucumber/cucumber_05s.jpg	seen	2273	190	5	None	458.0	6626.0	5.0	seen-within-between	3	5	105.81	2.98	False	True	105.80304510938004	108.78481107205153	[['y', 107.69259964721277], ['a', 109.1630780720152]]	-2.0	unseen	True	True	1.8825996472127715	2.9817659626714885	1.0	23.0	3176834.3814	False		False	7.0	0.0	541.0
03	ses-028	25	images_fmri/gauze/gauze_05s.jpg	seen	3209	268	5	None	665.0	9539.0	5.0	seen-between-within	3	5	110.28	2.98	False	False	110.28194202203304	113.2482501110062	[['a', 113.18827462103218], ['x', 113.6589535032399]]	1.0	seen	False	False	2.9082746210321773	2.966308088973165	1.0	24.0	3176838.8603	False		False	0.0	67.06189999962226	15.0
03	ses-028	26	images_fmri/guillotine/guillotine_05s.jpg	seen	3521	294	5	None	722.0	10358.0	5.0	seen-within	2	5	114.75	2.98	False	True	114.748478109017	117.73555475426838	[['b', 115.86204333417118]]	2.0	seen	False	True	1.112043334171176	2.9870766452513635	1.0	25.0	3176843.3268	False		False	0.0	457.1384000000544	81.0
03	ses-028	27	images_fmri/shoe/shoe_05s.jpg	seen	6689	558	5	None	1424.0	20196.0	5.0	seen-between-within	3	5	119.22	2.98	True	False	119.2186340270564	122.20241308910772	[['x', 120.15099812299013]]	2.0	seen	False	True	0.9309981229901324	2.983779062051326	1.0	26.0	3176847.7970	False		False	0.0	224.69499999983236	29.0
03	ses-028	28	images_fmri/fire/fire_05s.jpg	seen	2933	245	5	None	591.0	8535.0	5.0	seen-within-between	3	5	123.69	2.98	False	True	123.68557034432888	126.66752839833498	[['a', 125.1768551133573]]	1.0	seen	False	False	1.4868551133573078	2.9819580540061	1.0	27.0	3176852.2639	False		False	7.0	0.0	505.0
03	ses-028	29	images_fmri/birdhouse/birdhouse_05s.jpg	seen	665	56	5	None	132.0	2025.0	5.0	seen-within	2	5	128.16	2.98	True	False	128.1513916333206	131.1314080413431	[['x', 130.17553500737995]]	2.0	seen	False	True	2.0155350073799525	2.980016408022493	1.0	28.0	3176856.7297	False		False	0.0	62.56529999990016	14.0
03	ses-028	30	images_fmri/gun/gun_05s.jpg	seen	3545	296	5	None	728.0	10440.0	5.0	seen-within-between	3	5	132.63	2.98	False	False	132.63635849999264	135.59775882121176	[['b', 135.02007012907416]]	-1.0	unseen	True	False	2.390070129074161	2.9614003212191164	1.0	29.0	3176861.2147	False		False	7.0	0.0	398.0
03	ses-028	31	images_fmri/guardrail/guardrail_05s.jpg	unseen	3509	293	5	None	721.0	10340.0	5.0	unseen-between	1	5	137.1	2.98	True	False	137.10216143541038	140.08114463929087	[['a', 139.21359373629093]]	-2.0	unseen	False	True	2.1135937362909374	2.978983203880489	1.0	30.0	3176865.6805	False		False			
03	ses-028	32	images_fmri/crutch/crutch_05s.jpg	unseen	2249	188	5	None	453.0	6547.0	5.0	unseen-within	1	5	141.57	2.98	True	True	141.56928770523518	144.54779251897708	[['a', 142.70795989921317]]	-2.0	unseen	False	True	1.137959899213172	2.978504813741893	1.0	31.0	3176870.1476	False		False			
03	ses-028	33	images_fmri/wall/wall_05s.jpg	unseen	8261	689	5	None	1776.0	25039.0	5.0	unseen-within	1	5	146.04	2.98	True	False	146.03508487530053	149.01410041097552	[['a', 148.46802403312176]]	-2.0	unseen	False	True	2.4280240331217726	2.979015535674989	1.0	32.0	3176874.6134	False		False			
03	ses-028	34	images_fmri/wall/wall_05s.jpg	seen	8261	689	5	None	1776.0	25039.0	5.0	seen-within	2	5	150.51	2.98	False	True	150.50081029208377	153.48640673607588	[['b', 151.41471893712878]]	2.0	seen	False	True	0.9047189371287914	2.985596443992108	1.0	33.0	3176879.0791	False		False	0.0	4.46570000005886	1.0
03	ses-028	35	images_fmri/deer/deer_05s.jpg	seen	2357	197	5	None	477.0	6901.0	5.0	seen-within-between	3	5	154.98	2.98	True	True	154.98369916109368	157.95043308939785	[['y', 157.25281669804826], ['x', 158.38724580407143]]	1.0	seen	False	False	2.272816698048274	2.9667339283041656	1.0	34.0	3176883.5620	False		False	7.0	0.0	278.0
03	ses-028	36	images_fmri/ready_meal/ready_meal_05s.jpg	seen	6185	516	5	None	1293.0	18399.0	5.0	seen-between	2	5	159.45	2.98	True	True	159.44711158517748	162.430551039055	[['a', 161.15935646928847]]	-2.0	unseen	True	True	1.7093564692884795	2.9834394538775086	1.0	35.0	3176888.0254	False		False	7.0	0.0	460.0
03	ses-028	37	images_fmri/cookie/cookie_05s.jpg	seen	2009	168	5	None	401.0	5767.0	5.0	seen-between	2	5	163.92	2.98	False	True	163.91862724302337	166.89730744436383	[['y', 165.81247369432822], ['x', 166.9531528921798]]	-2.0	unseen	True	True	1.8924736943282312	2.9786802013404667	1.0	36.0	3176892.4969	False		False	7.0	0.0	366.0
03	ses-028	38	images_fmri/snorkel/snorkel_05s.jpg	seen	6905	576	5	None	1479.0	20956.0	5.0	seen-within-between	3	5	168.39	2.98	True	True	168.3834816403687	171.36358668422326	[['a', 170.46473569329828], ['y', 171.6093838470988], ['y', 172.23412664514035]]	-2.0	unseen	True	True	2.074735693298294	2.9801050438545644	1.0	37.0	3176896.9618	False		False	7.0	0.0	296.0
03	ses-028	39	images_fmri/phone/phone_05s.jpg	seen	5525	461	5	None	1162.0	16536.0	5.0	seen-within	2	5	172.86	2.98	False	False	172.86361498618498	175.8302237042226	[['y', 174.33714819839224]]	-2.0	unseen	True	True	1.4771481983922286	2.9666087180376053	1.0	38.0	3176901.4419	False		False	0.0	1208.6041999999434	207.0
03	ses-028	40	images_fmri/prism/prism_05s.jpg	seen	5957	497	5	None	1242.0	17666.0	5.0	seen-between-within	3	5	177.32999999999996	2.98	True	True	177.333074468188	180.30113174626604	[['b', 178.29465218121186]]	2.0	seen	False	True	0.9646521812119032	2.9680572780780494	1.0	39.0	3176905.9114	False		False	0.0	116.22900000028312	26.0
03	ses-028	41	images_fmri/cow/cow_05s.jpg	unseen	2105	176	5	None	427.0	6154.0	5.0	unseen-within	1	5	181.8	2.98	False	False	181.8006762820296	184.78370845131576	[['y', 182.9560808390379]]	-2.0	unseen	False	True	1.1560808390378838	2.9830321692861617	1.0	40.0	3176910.3790	False		False			
03	ses-028	42	images_fmri/rhubarb/rhubarb_05s.jpg	seen	6257	522	5	None	1308.0	18622.0	5.0	seen-within-between	3	5	186.27	2.98	True	True	186.2666444024071	189.246553064324	[['b', 189.06415879540145]]	2.0	seen	False	True	2.794158795401444	2.979908661916852	1.0	41.0	3176914.8450	False		False	7.0	0.0	387.0
03	ses-028	43	images_fmri/go-kart/go-kart_05s.jpg	unseen	3281	274	5	None	683.0	9781.0	5.0	unseen-between	1	5	190.74	2.98	False	True	190.72961037233472	193.7165125221945	[['y', 191.78485140018165]]	-2.0	unseen	False	True	1.044851400181642	2.986902149859816	1.0	42.0	3176919.3079	False		False			
03	ses-028	44	images_fmri/clipboard/clipboard_05s.jpg	unseen	1805	151	5	None	356.0	5152.0	5.0	unseen-between	1	5	195.21	2.98	False	False	195.21595054119825	198.1846803110093	[['y', 196.13410328421742]]	-2.0	unseen	False	True	0.9241032842174092	2.968729769811034	1.0	43.0	3176923.7943	False		False			
03	ses-028	45	images_fmri/speaker/speaker_05s.jpg	unseen	7049	588	5	None	1510.0	21354.0	5.0	unseen-between	1	5	199.68	2.98	True	False	199.68170101521537	202.6627304824069	[['a', 201.01541724940762]]	-2.0	unseen	False	True	1.3354172494076124	2.981029467191547	1.0	44.0	3176928.2600	False		False			
03	ses-028	46	images_fmri/mast/mast_05s.jpg	unseen	4685	391	5	None	982.0	13996.0	5.0	unseen-between	1	5	204.15	2.98	False	True	204.15076184133068	207.1292067612521	[['a', 205.70311840297654]]	1.0	seen	True	False	1.553118402976537	2.9784449199214578	1.0	45.0	3176932.7291	False		False			
03	ses-028	47	images_fmri/cow/cow_05s.jpg	seen	2105	176	5	None	427.0	6154.0	5.0	seen-within	2	5	208.62	2.98	False	True	208.61711418116465	211.60024337517095	[['b', 209.6042244900018]]	2.0	seen	False	True	0.9842244900017932	2.983129194006324	1.0	46.0	3176937.1954	False		False	0.0	26.8163999998942	6.0
03	ses-028	48	images_fmri/drum/drum_05s.jpg	unseen	2633	220	5	None	523.0	7592.0	5.0	unseen-within	1	5	213.09	2.98	False	True	213.0835181241855	216.0626480123028	[['y', 215.3316857283935]]	-2.0	unseen	False	True	2.241685728393492	2.9791298881173134	1.0	47.0	3176941.6618	False		False			
03	ses-028	49	images_fmri/donkey/donkey_05n.jpg	seen	2513	210	5	None	505.0	7297.0	5.0	seen-between-within	3	5	217.56	2.98	True	False	217.56460250914097	220.5339747131802	[['x', 218.44933843798935]]	2.0	seen	False	True	0.8893384379893519	2.969372204039246	1.0	48.0	3176946.1429	False		False	0.0	196.69199999980628	44.0
03	ses-028	50	images_fmri/steamroller/steamroller_05n.jpg	seen	7217	602	5	None	1546.0	21843.0	5.0	seen-within	2	5	222.03	2.98	False	False	222.0327441371046	225.0124646150507	[['y', 223.37902740435675], ['b', 224.94635766511783], ['a', 225.41356751415879]]	-2.0	unseen	True	True	1.3490274043567467	2.9797204779461026	1.0	49.0	3176950.6111	False		False	0.0	1181.7881999998353	201.0
03	ses-028	51	images_fmri/wrench/wrench_05s.jpg	unseen	8597	717	5	None	1842.0	25932.0	5.0	unseen-between	1	5	226.5	2.98	False	False	226.4953272412531	229.48304710304365	[['y', 227.424107815139]]	-2.0	unseen	False	True	0.9241078151389956	2.987719861790538	1.0	50.0	3176955.0736	False		False			
03	ses-028	52	images_fmri/razor/razor_05s.jpg	unseen	6173	515	5	None	1291.0	18374.0	5.0	unseen-between	1	5	230.97	2.98	True	True	230.9666762431152	233.94519903929904	[['a', 232.01995899435133]]	-2.0	unseen	False	True	1.0499589943513286	2.9785227961838245	1.0	51.0	3176959.5450	False		False			
03	ses-028	53	images_fmri/zebra/zebra_05s.jpg	seen	8621	719	5	None	1852.0	26067.0	5.0	seen-between	2	5	235.44	2.98	True	False	235.43347404710948	238.41171637922525	[['y', 237.0049449261278]]	1.0	seen	False	False	1.5649449261277937	2.9782423321157694	1.0	52.0	3176964.0118	False		False	7.0	0.0	616.0
03	ses-028	54	images_fmri/banana/banana_05s.jpg	seen	353	30	5	None	64.0	952.0	5.0	seen-between-within	3	5	239.91	2.98	True	False	239.9146857731976	242.8833896941505	[['x', 240.94282703334466]]	2.0	seen	False	True	1.0328270333446596	2.968703920952976	1.0	53.0	3176968.4930	False		False	0.0	551.0186999998987	102.0
03	ses-028	55	images_fmri/padlock/padlock_05s.jpg	seen	5237	437	5	None	1096.0	15605.0	5.0	seen-between-within	3	5	244.38	2.98	True	False	244.38368418021128	247.36159556731585	[['x', 245.59539891639724]]	2.0	seen	False	True	1.2153989163972485	2.977911387104541	1.0	54.0	3176972.9620	False		False	0.0	767.0821999995969	130.0
03	ses-028	56	images_fmri/ready_meal/ready_meal_05s.jpg	seen	6185	516	5	None	1293.0	18399.0	5.0	seen-between-within	3	5	248.85	2.98	True	False	248.8484251080081	251.83288251794875	[['x', 250.00863464316353]]	2.0	seen	False	True	1.1586346431635377	2.98445740994066	1.0	55.0	3176977.4267	False		False	0.0	89.40130000002682	20.0
03	ses-028	57	images_fmri/book/book_05s.jpg	seen	845	71	5	None	166.0	2530.0	5.0	seen-between-within	3	5	253.32	2.98	True	False	253.31564664514732	256.29455222329125	[['x', 255.70906355511397]]	2.0	seen	False	True	2.389063555113978	2.9789055781438947	1.0	56.0	3176981.8940	False		False	0.0	834.1306999996305	145.0
03	ses-028	58	images_fmri/mop/mop_05s.jpg	unseen	4877	407	5	None	1020.0	14532.0	5.0	unseen-between	1	5	257.79	2.98	True	True	257.78132534911856	260.7649605702609	[['a', 258.77586552733555]]	-2.0	unseen	False	True	0.985865527335534	2.983635221142322	1.0	57.0	3176986.3596	False		False			
03	ses-028	59	images_fmri/zucchini/zucchini_05s.jpg	unseen	8633	720	5	None	1854.0	26099.0	5.0	unseen-between	1	5	262.26	2.98	True	False	262.2643429702148	265.2319259312935	[['a', 263.40569186909124]]	-2.0	unseen	False	True	1.1456918690912516	2.967582961078733	1.0	58.0	3176990.8427	False		False			
03	ses-028	60	images_fmri/meatball/meatball_05s.jpg	unseen	4733	395	5	None	990.0	14100.0	5.0	unseen-between	1	5	266.73	2.98	False	True	266.7330516153015	269.71123795211315	[['a', 268.63574656425044], ['x', 269.16509405802935]]	1.0	seen	True	False	1.9057465642504208	2.978186336811632	1.0	59.0	3176995.3114	False		False			
