subject	session	TrialNumber	image_path	condition	image_nr	category_nr	exemplar_nr	test_image_nr	things_category_nr	things_image_nr	things_exemplar_nr	subcondition	repetition	run	onset	duration	response_mapping_flip_h	response_mapping_flip_v	onset_flip	offset_flip	keypresses	response	response_txt	error	response_confidence	response_time	duration_flip	ran	order	session_trial_time	atypical	atypical_log	exclude_session	delay_days	delay_seconds	trials_since_lastrep
02	ses-018	1	images_fmri/lamp/lamp_04s.jpg	seen	4216	352	4	None	892.0	12772.0	4.0	seen-between	2	1	3.0	2.98	True	False	2.999305009841919	5.967200040817261	[['a', 4.465451955795288]]	-2.0	unseen	True	True	1.465451955795288	2.967895030975342	1.0	0.0	1078.7625051012033	False		False	7.0	0.0	208.0
02	ses-018	2	images_fmri/lantern/lantern_04s.jpg	unseen	4240	354	4	None	896.0	12826.0	4.0	unseen-between	1	1	7.47	2.98	True	False	7.472275972366333	10.452327966690063	[['a', 9.522568941116333]]	-2.0	unseen	False	True	2.0525689411163333	2.9800519943237305	1.0	1.0	1083.2325051012033	False		False			
02	ses-018	3	images_fmri/tiara/tiara_04s.jpg	unseen	7696	642	4	None	1656.0	23381.0	4.0	unseen-within	1	1	11.94	2.98	False	True	11.937846899032593	14.917394876480104	[['x', 14.620315074920654]]	-1.0	unseen	False	False	2.680315074920655	2.9795479774475098	1.0	2.0	1087.7025051012033	False		False			
02	ses-018	4	images_fmri/tiara/tiara_04s.jpg	seen	7696	642	4	None	1656.0	23381.0	4.0	seen-within	2	1	16.41	2.98	True	False	16.403586864471436	19.38410496711731	[['x', 17.838696002960205]]	2.0	seen	False	True	1.428696002960205	2.980518102645874	1.0	3.0	1092.1725051012033	False		False	0.0	4.470000000000027	1.0
02	ses-018	5	images_fmri/speaker/speaker_04s.jpg	unseen	7048	588	4	None	1510.0	21353.0	4.0	unseen-within	1	1	20.88	2.98	False	True	20.88564109802246	23.850178956985477	[['a', 23.415581941604614]]	1.0	seen	True	False	2.5355819416046157	2.9645378589630127	1.0	4.0	1096.6425051012034	False		False			
02	ses-018	6	images_fmri/flashbulb/flashbulb_04s.jpg	seen	2992	250	4	None	611.0	8830.0	4.0	seen-within-between	3	1	25.35	2.98	False	True	25.353262901306152	28.332777976989743	[['a', 27.240499019622803]]	1.0	seen	False	False	1.890499019622801	2.9795150756835938	1.0	5.0	1101.1125051012032	False		False	7.0	0.0	62.0
02	ses-018	7	images_fmri/cheese/cheese_04s.jpg	seen	1600	134	4	None	313.0	4552.0	4.0	seen-between	2	1	29.82	2.98	False	True	29.82098507881165	32.800169944763184	[['b', 31.25812292098999]]	2.0	seen	False	True	1.43812292098999	2.979184865951538	1.0	6.0	1105.5825051012032	False		False	7.0	0.0	248.0
02	ses-018	8	images_fmri/camera1/camera1_04s.jpg	seen	1288	108	4	None	248.0	3669.0	4.0	seen-within-between	3	1	34.29	2.98	False	False	34.28677487373352	37.26675605773926	[['a', 36.779568910598755]]	1.0	seen	False	False	2.489568910598756	2.9799811840057373	1.0	7.0	1110.0525051012032	False		False	7.0	0.0	22.0
02	ses-018	9	images_fmri/bunkbed/bunkbed_04s.jpg	unseen	1144	96	4	None	223.0	3332.0	4.0	unseen-within	1	1	38.76	2.98	True	True	38.75300908088684	41.73226094245911	[['b', 39.969430923461914]]	2.0	seen	True	True	1.209430923461916	2.9792518615722656	1.0	8.0	1114.5225051012033	False		False			
02	ses-018	10	images_fmri/hammock/hammock_04s.jpg	seen	3604	301	4	None	743.0	10646.0	4.0	seen-between	2	1	43.23	2.98	True	False	43.23582291603088	46.199501037597656	[['a', 45.41912603378296]]	-2.0	unseen	True	True	2.189126033782962	2.9636781215667725	1.0	9.0	1118.9925051012033	False		False	7.0	0.0	62.0
02	ses-018	11	images_fmri/saltshaker/saltshaker_04s.jpg	seen	6424	536	4	None	1351.0	19208.0	4.0	seen-between	2	1	47.7	2.98	False	False	47.70475888252258	50.68316602706909	[['y', 49.65826201438904], ['y', 49.66195607185364]]	-2.0	unseen	True	True	1.9582620143890352	2.978407144546509	1.0	10.0	1123.4625051012033	False		False	7.0	0.0	295.0
02	ses-018	12	images_fmri/cheese/cheese_04s.jpg	seen	1600	134	4	None	313.0	4552.0	4.0	seen-between-within	3	1	52.17	2.98	True	True	52.16962099075317	55.15463805198669	[['b', 53.221107006073]]	2.0	seen	False	True	1.0511070060729963	2.9850170612335205	1.0	11.0	1127.9325051012033	False		False	0.0	22.350000000000136	5.0
02	ses-018	13	images_fmri/pocket/pocket_04s.jpg	seen	5752	480	4	None	1206.0	17134.0	4.0	seen-between	2	1	56.64	2.98	False	False	56.63642501831055	59.61595797538757	[['x', 58.516627073287964]]	2.0	seen	False	True	1.8766270732879635	2.9795329570770264	1.0	12.0	1132.4025051012034	False		False	7.0	0.0	118.0
02	ses-018	14	images_fmri/road_sign/road_sign_04s.jpg	seen	6316	527	4	None	1316.0	18726.0	4.0	seen-between	2	1	61.11	2.98	True	True	61.10306406021118	64.08206295967102	[['b', 62.845272064208984]]	2.0	seen	False	True	1.735272064208985	2.978998899459839	1.0	13.0	1136.8725051012032	False		False	7.0	0.0	86.0
02	ses-018	15	images_fmri/syringe/syringe_04s.jpg	seen	7432	620	4	None	1605.0	22673.0	4.0	seen-within-between	3	1	65.58	2.98	False	True	65.58473086357117	68.54844808578491	[['a', 67.81409502029419]]	1.0	seen	False	False	2.234095020294191	2.963717222213745	1.0	14.0	1141.3425051012032	False		False	7.0	0.0	102.0
02	ses-018	16	images_fmri/nest/nest_04s.jpg	seen	5056	422	4	None	1057.0	15044.0	4.0	seen-within-between	3	1	70.05	2.98	True	True	70.05225205421448	73.03497409820557	[['b', 71.28501987457275]]	2.0	seen	False	True	1.2350198745727567	2.982722043991089	1.0	15.0	1145.8125051012032	False		False	7.0	0.0	97.0
02	ses-018	17	images_fmri/face_mask/face_mask_04s.jpg	seen	2848	238	4	None	571.0	8259.0	4.0	seen-between	2	1	74.52	2.98	False	True	74.51581406593323	77.49917888641357	[['b', 76.17904090881348]]	2.0	seen	False	True	1.6590409088134803	2.9833648204803467	1.0	16.0	1150.2825051012032	False		False	7.0	0.0	326.0
02	ses-018	18	images_fmri/bird/bird_04s.jpg	unseen	640	54	4	None	129.0	1974.0	4.0	unseen-between	1	1	78.99	2.98	True	False	78.98663187026978	81.96601700782776	[['b', 80.62005591392517]]	-1.0	unseen	False	False	1.630055913925176	2.9793851375579834	1.0	17.0	1154.7525051012033	False		False			
02	ses-018	19	images_fmri/shield/shield_04s.jpg	unseen	6652	555	4	None	1421.0	20158.0	4.0	unseen-within	1	1	83.46	2.98	False	True	83.45193791389465	86.43144488334656	[['b', 85.86486601829529]]	2.0	seen	True	True	2.4048660182952943	2.9795069694519043	1.0	18.0	1159.2225051012033	False		False			
02	ses-018	20	images_fmri/tree_trunk/tree_trunk_04s.jpg	unseen	7996	667	4	None	1710.0	24117.0	4.0	unseen-within	1	1	87.92999999999998	2.98	False	False	87.93481588363647	90.8977119922638	[['a', 89.46720504760742]]	1.0	seen	True	False	1.5372050476074437	2.96289610862732	1.0	19.0	1163.6925051012033	False		False			
02	ses-018	21	images_fmri/cotton_candy/cotton_candy_04s.jpg	unseen	2068	173	4	None	422.0	6067.0	4.0	unseen-between	1	1	92.4	2.98	True	True	92.39872193336488	95.38200998306274	[['y', 95.25315403938293]]	1.0	seen	True	False	2.853154039382929	2.983288049697876	1.0	20.0	1168.1625051012034	False		False			
02	ses-018	22	images_fmri/spinach/spinach_04s.jpg	seen	7072	590	4	None	1516.0	21435.0	4.0	seen-within-between	3	1	96.87	2.98	False	True	96.8652880191803	99.84773802757265	[['b', 98.30525207519531]]	2.0	seen	False	True	1.435252075195308	2.982450008392334	1.0	21.0	1172.6325051012032	False		False	7.0	0.0	67.0
02	ses-018	23	images_fmri/toolbox/toolbox_04s.jpg	unseen	7828	653	4	None	1678.0	23681.0	4.0	unseen-within	1	1	101.34	2.98	False	False	101.33154797554016	104.31616306304932	[['x', 102.68923306465149]]	2.0	seen	True	True	1.3492330646514858	2.9846150875091557	1.0	22.0	1177.1025051012032	False		False			
02	ses-018	24	images_fmri/speaker/speaker_04s.jpg	seen	7048	588	4	None	1510.0	21353.0	4.0	seen-within	2	1	105.81	2.98	False	False	105.8029510974884	108.78594708442688	[['x', 106.84472107887268]]	2.0	seen	False	True	1.0347210788726784	2.982995986938477	1.0	23.0	1181.5725051012032	False		False	0.0	84.92999999999984	19.0
02	ses-018	25	images_fmri/hippopotamus/hippopotamus_04s.jpg	unseen	3784	316	4	None	782.0	11187.0	4.0	unseen-within	1	1	110.28	2.98	True	True	110.2844738960266	113.24757409095764	[['b', 112.2422149181366]]	2.0	seen	True	True	1.9622149181365955	2.9631001949310303	1.0	24.0	1186.0425051012032	False		False			
02	ses-018	26	images_fmri/grits/grits_04s.jpg	seen	3472	290	4	None	718.0	10290.0	4.0	seen-between	2	1	114.75	2.98	True	False	114.75234198570251	117.73170399665833	[['x', 116.88214302062988]]	2.0	seen	False	True	2.132143020629883	2.9793620109558105	1.0	25.0	1190.5125051012033	False		False	7.0	0.0	200.0
02	ses-018	27	images_fmri/pecan/pecan_04s.jpg	unseen	5440	454	4	None	1136.0	16170.0	4.0	unseen-within	1	1	119.22	2.98	False	True	119.21489691734314	122.19892501831056	[['b', 120.93887591362]]	2.0	seen	True	True	1.7188759136199965	2.9840281009674072	1.0	26.0	1194.9825051012033	False		False			
02	ses-018	28	images_fmri/sickle/sickle_04s.jpg	seen	6760	564	4	None	1442.0	20447.0	4.0	seen-within-between	3	1	123.69	2.98	True	True	123.68151688575745	126.66357803344728	[['y', 126.49401187896729]]	1.0	seen	False	False	2.8040118789672874	2.98206114768982	1.0	27.0	1199.4525051012033	False		False	7.0	0.0	98.0
02	ses-018	29	images_fmri/corn/corn_04s.jpg	seen	2056	172	4	None	413.0	5930.0	4.0	seen-between	2	1	128.16	2.98	True	True	128.14678406715393	131.1303050518036	[['x', 130.68096089363098]]	-1.0	unseen	True	False	2.520960893630985	2.983520984649658	1.0	28.0	1203.9225051012033	False		False	7.0	0.0	79.0
02	ses-018	30	images_fmri/sim_card/sim_card_04s.jpg	unseen	6784	566	4	None	1447.0	20519.0	4.0	unseen-between	1	1	132.63	2.98	False	False	132.6358618736267	135.60218906402588	[['y', 135.73410892486572]]	-2.0	unseen	False	True	3.104108924865727	2.96632719039917	1.0	29.0	1208.3925051012034	False		False			
02	ses-018	31	images_fmri/mushroom/mushroom_04n.jpg	unseen	4984	416	4	None	1041.0	14829.0	4.0	unseen-between	1	1	137.1	2.98	True	False	137.09681701660156	140.08175992965698	[['a', 138.6989140510559]]	-2.0	unseen	False	True	1.598914051055914	2.98494291305542	1.0	30.0	1212.8625051012032	False		False			
02	ses-018	32	images_fmri/carousel/carousel_04n.jpg	seen	1432	120	4	None	276.0	4050.0	4.0	seen-within-between	3	1	141.57	2.98	True	False	141.5681219100952	144.551992893219	[['x', 142.64960193634033]]	2.0	seen	False	True	1.0796019363403389	2.9838709831237797	1.0	31.0	1217.3325051012032	False		False	7.0	0.0	258.0
02	ses-018	33	images_fmri/chess_piece/chess_piece_04s.jpg	unseen	1636	137	4	None	318.0	4619.0	4.0	unseen-within	1	1	146.04	2.98	True	True	146.03395986557007	149.01411604881287	[['y', 149.17368292808533]]	1.0	seen	True	False	3.133682928085335	2.980156183242798	1.0	32.0	1221.8025051012032	False		False			
02	ses-018	34	images_fmri/stethoscope/stethoscope_04s.jpg	seen	7228	603	4	None	1551.0	21907.0	4.0	seen-between	2	1	150.51	2.98	True	False	150.5139238834381	153.48415207862854	[['x', 151.73606896400452]]	2.0	seen	False	True	1.2260689640045257	2.9702281951904297	1.0	33.0	1226.2725051012033	False		False	7.0	0.0	74.0
02	ses-018	35	images_fmri/magnifying_glass/magnifying_glass_04s.jpg	seen	4540	379	4	None	959.0	13665.0	4.0	seen-between	2	1	154.98	2.98	False	False	154.98291897773743	157.96531796455383	[['x', 156.42131900787354]]	2.0	seen	False	True	1.4413190078735454	2.9823989868164062	1.0	34.0	1230.7425051012033	False		False	7.0	0.0	325.0
02	ses-018	36	images_fmri/kite/kite_04s.jpg	seen	4144	346	4	None	875.0	12527.0	4.0	seen-between	2	1	159.45	2.98	False	True	159.45176601409912	162.4354109764099	[['b', 160.543869972229]]	2.0	seen	False	True	1.0938699722290153	2.983644962310791	1.0	35.0	1235.2125051012033	False		False	7.0	0.0	58.0
02	ses-018	37	images_fmri/celery/celery_04s.jpg	seen	1516	127	4	None	292.0	4263.0	4.0	seen-within-between	3	1	163.92	2.98	False	True	163.91830897331238	166.89718198776245	[['b', 164.93973588943481]]	2.0	seen	False	True	1.019735889434827	2.978873014450073	1.0	36.0	1239.6825051012033	False		False	7.0	0.0	282.0
02	ses-018	38	images_fmri/lettuce/lettuce_04n.jpg	seen	4360	364	4	None	921.0	13161.0	4.0	seen-between	2	1	168.39	2.98	False	False	168.38428688049316	171.363676071167	[['x', 170.76768398284912]]	2.0	seen	False	True	2.3776839828491347	2.979389190673828	1.0	37.0	1244.1525051012031	False		False	7.0	0.0	130.0
02	ses-018	39	images_fmri/egg/egg_04s.jpg	unseen	2704	226	4	None	547.0	7938.0	4.0	unseen-within	1	1	172.86	2.98	True	True	172.86601400375366	175.8298830986023	[['x', 174.5936300754547]]	-1.0	unseen	False	False	1.7336300754546985	2.963869094848633	1.0	38.0	1248.6225051012034	False		False			
02	ses-018	40	images_fmri/robot/robot_04s.jpg	seen	6328	528	4	None	1319.0	18767.0	4.0	seen-between	2	1	177.32999999999996	2.98	True	False	177.33406686782837	180.31332302093503	[['x', 179.31023693084717]]	2.0	seen	False	True	1.9802369308472123	2.979256153106689	1.0	39.0	1253.0925051012032	False		False	7.0	0.0	191.0
02	ses-018	41	images_fmri/viewfinder/viewfinder_04s.jpg	unseen	8212	685	4	None	1764.0	24863.0	4.0	unseen-within	1	1	181.8	2.98	True	True	181.79657793045044	184.78044891357425	[['x', 183.49381303787231]]	-1.0	unseen	False	False	1.693813037872303	2.9838709831237797	1.0	40.0	1257.5625051012032	False		False			
02	ses-018	42	images_fmri/pumpkin/pumpkin_04s.jpg	seen	6004	501	4	None	1254.0	17856.0	4.0	seen-within-between	3	1	186.27	2.98	True	True	186.26625800132751	189.24648809432983	[['b', 187.45362091064453]]	2.0	seen	False	True	1.183620910644521	2.98023009300232	1.0	41.0	1262.0325051012032	False		False	7.0	0.0	238.0
02	ses-018	43	images_fmri/pocket/pocket_04s.jpg	seen	5752	480	4	None	1206.0	17134.0	4.0	seen-between-within	3	1	190.74	2.98	False	False	190.7339940071106	193.71319603919983	[['x', 191.63525891304016]]	2.0	seen	False	True	0.895258913040152	2.9792020320892334	1.0	42.0	1266.5025051012033	False		False	0.0	134.0999999999999	30.0
02	ses-018	44	images_fmri/chin/chin_04s.jpg	seen	1696	142	4	None	331.0	4785.0	4.0	seen-within-between	3	1	195.21	2.98	True	False	195.2155900001526	198.1784739494324	[['b', 197.83999490737915]]	-1.0	unseen	True	False	2.6299949073791424	2.962883949279785	1.0	43.0	1270.9725051012033	False		False	7.0	0.0	330.0
02	ses-018	45	images_fmri/pacifier/pacifier_04s.jpg	unseen	5224	436	4	None	1094.0	15576.0	4.0	unseen-within	1	1	199.68	2.98	False	False	199.68358302116397	202.662663936615	[['y', 201.66863894462585]]	-2.0	unseen	False	True	1.988638944625848	2.97908091545105	1.0	44.0	1275.4425051012033	False		False			
02	ses-018	46	images_fmri/lamp/lamp_04s.jpg	seen	4216	352	4	None	892.0	12772.0	4.0	seen-between-within	3	1	204.15	2.98	False	False	204.15100288391116	207.13174200057983	[['x', 205.0226628780365]]	2.0	seen	False	True	0.8726628780364933	2.980739116668701	1.0	45.0	1279.9125051012034	False		False	0.0	201.1500000000001	45.0
02	ses-018	47	images_fmri/asparagus/asparagus_04s.jpg	seen	232	20	4	None	43.0	595.0	4.0	seen-within-between	3	1	208.62	2.98	True	True	208.61649990081787	211.59619998931885	[['b', 209.9235200881958]]	2.0	seen	False	True	1.3035200881957962	2.979700088500977	1.0	46.0	1284.3825051012032	False		False	7.0	0.0	169.0
02	ses-018	48	images_fmri/face_mask/face_mask_04s.jpg	seen	2848	238	4	None	571.0	8259.0	4.0	seen-between-within	3	1	213.09	2.98	True	False	213.08352398872373	216.0666539669037	[['x', 214.077250957489]]	2.0	seen	False	True	0.9872509574890104	2.983129978179932	1.0	47.0	1288.8525051012032	False		False	0.0	138.56999999999994	31.0
02	ses-018	49	images_fmri/anvil/anvil_04s.jpg	unseen	172	15	4	None	29.0	395.0	4.0	unseen-between	1	1	217.56	2.98	True	True	217.564945936203	220.5289750099182	[['a', 219.29265904426575]]	-2.0	unseen	False	True	1.7326590442657448	2.96402907371521	1.0	48.0	1293.3225051012032	False		False			
02	ses-018	50	images_fmri/projector/projector_04s.jpg	unseen	5968	498	4	None	1243.0	17677.0	4.0	unseen-within	1	1	222.03	2.98	False	False	222.02870106697085	225.0124099254608	[['b', 224.4025640487671]]	-1.0	unseen	False	False	2.3725640487670887	2.9837088584899902	1.0	49.0	1297.7925051012032	False		False			
02	ses-018	51	images_fmri/videocassette/videocassette_04n.jpg	seen	8200	684	4	None	1762.0	24836.0	4.0	seen-within-between	3	1	226.5	2.98	False	False	226.4994180202484	229.47960901260376	[['a', 228.6185519695282]]	1.0	seen	False	False	2.1185519695281982	2.9801909923553467	1.0	50.0	1302.2625051012033	False		False	7.0	0.0	122.0
02	ses-018	52	images_fmri/velcro/velcro_04s.jpg	seen	8188	683	4	None	1757.0	24765.0	4.0	seen-within-between	3	1	230.97	2.98	True	True	230.96291494369507	233.94635391235352	[['b', 232.34255290031433]]	2.0	seen	False	True	1.3725529003143322	2.9834389686584477	1.0	51.0	1306.7325051012033	False		False	7.0	0.0	317.0
02	ses-018	53	images_fmri/toolbox/toolbox_04s.jpg	seen	7828	653	4	None	1678.0	23681.0	4.0	seen-within	2	1	235.44	2.98	False	False	235.4326250553131	238.4159939289093	[['x', 236.3280849456787]]	2.0	seen	False	True	0.8880849456787132	2.9833688735961914	1.0	52.0	1311.2025051012033	False		False	0.0	134.10000000000014	30.0
02	ses-018	54	images_fmri/projector/projector_04s.jpg	seen	5968	498	4	None	1243.0	17677.0	4.0	seen-within	2	1	239.91	2.98	False	True	239.91479802131653	242.8819079399109	[['b', 240.83042407035828]]	2.0	seen	False	True	0.9204240703582798	2.9671099185943604	1.0	53.0	1315.6725051012033	False		False	0.0	17.88000000000011	4.0
02	ses-018	55	images_fmri/bunkbed/bunkbed_04s.jpg	seen	1144	96	4	None	223.0	3332.0	4.0	seen-within	2	1	244.38	2.98	False	False	244.3794679641724	247.36265802383423	[['x', 245.35349106788635]]	2.0	seen	False	True	0.9734910678863572	2.983190059661865	1.0	54.0	1320.1425051012034	False		False	0.0	205.62000000000012	46.0
02	ses-018	56	images_fmri/avocado/avocado_04s.jpg	unseen	244	21	4	None	44.0	607.0	4.0	unseen-within	1	1	248.85	2.98	True	True	248.84827399253845	251.82815408706665	[['b', 250.71023893356323]]	2.0	seen	True	True	1.860238933563238	2.9798800945281982	1.0	55.0	1324.6125051012032	False		False			
02	ses-018	57	images_fmri/paper/paper_04s.jpg	seen	5332	445	4	None	1113.0	15832.0	4.0	seen-within-between	3	1	253.32	2.98	False	True	253.31176590919492	256.29363799095154	[['a', 255.54601287841797]]	1.0	seen	False	False	2.226012878417976	2.981872081756592	1.0	56.0	1329.0825051012032	False		False	7.0	0.0	174.0
02	ses-018	58	images_fmri/saltshaker/saltshaker_04s.jpg	seen	6424	536	4	None	1351.0	19208.0	4.0	seen-between-within	3	1	257.79	2.98	True	True	257.7823739051819	260.76590394973755	[['b', 258.7960720062256]]	2.0	seen	False	True	1.0060720062255657	2.983530044555664	1.0	57.0	1333.5525051012032	False		False	0.0	210.08999999999992	47.0
02	ses-018	59	images_fmri/shield/shield_04s.jpg	seen	6652	555	4	None	1421.0	20158.0	4.0	seen-within	2	1	262.26	2.98	False	False	262.26274704933167	265.23108291625977	[['x', 263.43833899497986]]	2.0	seen	False	True	1.1783389949798675	2.9683358669281006	1.0	58.0	1338.0225051012033	False		False	0.0	178.79999999999995	40.0
02	ses-018	60	images_fmri/kite/kite_04s.jpg	seen	4144	346	4	None	875.0	12527.0	4.0	seen-between-within	3	1	266.73	2.98	True	False	266.732017993927	269.7142128944397	[['x', 267.6702790260315]]	2.0	seen	False	True	0.940279026031476	2.9821949005126958	1.0	59.0	1342.4925051012033	False		False	0.0	107.27999999999997	24.0
