subject	session	TrialNumber	image_path	condition	image_nr	category_nr	exemplar_nr	test_image_nr	things_category_nr	things_image_nr	things_exemplar_nr	subcondition	repetition	run	onset	duration	response_mapping_flip_h	response_mapping_flip_v	onset_flip	offset_flip	keypresses	response	response_txt	error	response_confidence	response_time	duration_flip	ran	order	session_trial_time	atypical	atypical_log	exclude_session	delay_days	delay_seconds	trials_since_lastrep
01	ses-028	1	images_fmri/refrigerator/refrigerator_05s.jpg	unseen	6209	518	5	None	1301.0	18521.0	5.0	unseen-within	1	4	3.0	2.98	False	True	3.0012607839889824	5.982700970023871	[['x', 4.544628497911617]]	-1.0	unseen	False	False	1.5446284979116172	2.981440186034888	1.0	0.0	1377235.0135	False		False			
01	ses-028	2	images_fmri/eggbeater/eggbeater_05s.jpg	unseen	2729	228	5	None	549.0	7966.0	5.0	unseen-between	1	4	7.47	2.98	True	True	7.470217444002628	10.449389362009242	[['x', 9.43273898307234]]	-1.0	unseen	False	False	1.9627389830723407	2.979171918006614	1.0	1.0	1377239.4825	False		False			
01	ses-028	3	images_fmri/blanket/blanket_05s.jpg	seen	701	59	5	None	137.0	2092.0	5.0	seen-within-between	3	4	11.94	2.98	True	True	11.937014624010772	14.915407677879555	[['x', 14.315657395869493]]	-1.0	unseen	True	False	2.375657395869494	2.978393053868785	1.0	2.0	1377243.9493	False		False	7.0	0.0	355.0
01	ses-028	4	images_fmri/gramophone/gramophone_05s.jpg	unseen	3353	280	5	None	700.0	10024.0	5.0	unseen-between	1	4	16.41	2.98	True	True	16.402821386931464	19.38189065293409	[['x', 18.007827570894733]]	-1.0	unseen	False	False	1.597827570894733	2.979069266002625	1.0	3.0	1377248.4151	False		False			
01	ses-028	5	images_fmri/bracket/bracket_05s.jpg	seen	965	81	5	None	190.0	2881.0	5.0	seen-between	2	4	20.88	2.98	False	True	20.883799731964245	23.849314749939367	[['x', 22.295619206968695], ['a', 23.540459723910317]]	-1.0	unseen	True	False	1.415619206968696	2.9655150179751217	1.0	4.0	1377252.8961	False		False	7.0	0.0	213.0
01	ses-028	6	images_fmri/snorkel/snorkel_05s.jpg	seen	6905	576	5	None	1479.0	20956.0	5.0	seen-within-between	3	4	25.35	2.98	True	True	25.34869314800017	28.33194590592757	[['b', 26.931357250083238]]	2.0	seen	False	True	1.5813572500832365	2.983252757927403	1.0	5.0	1377257.3610	False		False	7.0	0.0	278.0
01	ses-028	7	images_fmri/lingerie/lingerie_05s.jpg	unseen	4421	369	5	None	933.0	13324.0	5.0	unseen-between	1	4	29.82	2.98	False	True	29.818642465863377	32.79845224507153	[['x', 32.319530114065856]]	-1.0	unseen	False	False	2.4995301140658555	2.979809779208153	1.0	6.0	1377261.8309	False		False			
01	ses-028	8	images_fmri/gearshift/gearshift_05s.jpg	seen	3221	269	5	None	669.0	9589.0	5.0	seen-between-within	3	4	34.29	2.98	False	True	34.28600341803394	37.270474006887525	[['b', 35.270490472903475]]	2.0	seen	False	True	0.980490472903476	2.9844705888535827	1.0	7.0	1377266.2983	False		False	0.0	1107.2918000000063	178.0
01	ses-028	9	images_fmri/steamroller/steamroller_05n.jpg	unseen	7217	602	5	None	1546.0	21843.0	5.0	unseen-within	1	4	38.76	2.98	False	True	38.75360906287096	41.7344469318632	[['x', 40.204837288009]]	-1.0	unseen	False	False	1.4448372880090048	2.9808378689922392	1.0	8.0	1377270.7659	False		False			
01	ses-028	10	images_fmri/car/car_05s.jpg	unseen	1409	118	5	None	268.0	3944.0	5.0	unseen-between	1	4	43.23	2.98	True	True	43.23440832388587	46.20126552903093	[['x', 44.9937742089387]]	-1.0	unseen	False	False	1.763774208938706	2.966857205145061	1.0	9.0	1377275.2467	False		False			
01	ses-028	11	images_fmri/crayon/crayon_05s.jpg	unseen	2165	181	5	None	436.0	6302.0	5.0	unseen-within	1	4	47.7	2.98	True	True	47.7011772680562	50.68133377307095	[['x', 48.96874860301614]]	-1.0	unseen	False	False	1.2687486030161352	2.9801565050147474	1.0	10.0	1377279.7134	False		False			
01	ses-028	12	images_fmri/elephant/elephant_05n.jpg	unseen	2765	231	5	None	555.0	8047.0	5.0	unseen-within	1	4	52.17	2.98	False	False	52.1685173260048	55.147924217861146	[['b', 54.472815912915394]]	-1.0	unseen	False	False	2.302815912915392	2.9794068918563426	1.0	11.0	1377284.1808	False		False			
01	ses-028	13	images_fmri/kebab/kebab_05n.jpg	unseen	4097	342	5	None	866.0	12384.0	5.0	unseen-between	1	4	56.64	2.98	True	False	56.63105245493352	59.61456739297137	[['b', 59.19181319605559]]	-1.0	unseen	False	False	2.5518131960555905	2.9835149380378425	1.0	12.0	1377288.6433	False		False			
01	ses-028	14	images_fmri/punching_bag/punching_bag_05s.jpg	unseen	6029	503	5	None	1257.0	17906.0	5.0	unseen-within	1	4	61.11	2.98	False	False	61.101863746065646	64.08126498502679	[['b', 62.47980876406655]]	-1.0	unseen	False	False	1.3698087640665475	2.9794012389611453	1.0	13.0	1377293.1141	False		False			
01	ses-028	15	images_fmri/camcorder/camcorder_05s.jpg	seen	1265	106	5	None	245.0	3631.0	5.0	seen-within-between	3	4	65.58	2.98	True	False	65.5838418439962	68.54755682405084	[['y', 67.80343279405497]]	1.0	seen	False	False	2.223432794054972	2.9637149800546467	1.0	14.0	1377297.5961	False		False	7.0	0.0	321.0
01	ses-028	16	images_fmri/eyedropper/eyedropper_05s.jpg	seen	2813	235	5	None	567.0	8212.0	5.0	seen-within-between	3	4	70.05	2.98	False	True	70.04759036097676	73.03546872595325	[['a', 73.31000125501305]]	1.0	seen	False	False	3.2600012550130515	2.9878783649764955	1.0	15.0	1377302.0598	False		False	7.0	0.0	369.0
01	ses-028	17	images_fmri/pear/pear_05s.jpg	seen	5429	453	5	None	1134.0	16145.0	5.0	seen-within-between	3	4	74.52	2.98	False	False	74.51416850695387	77.49739113985561	[['b', 76.51852403208613]]	-1.0	unseen	True	False	1.998524032086138	2.983222632901743	1.0	16.0	1377306.5264	False		False	7.0	0.0	222.0
01	ses-028	18	images_fmri/fudge/fudge_05s.jpg	seen	3137	262	5	None	648.0	9325.0	5.0	seen-between	2	4	78.99	2.98	True	False	78.98685282003134	81.96877921093255	[['b', 80.20340189198032]]	-1.0	unseen	True	False	1.213401891980325	2.981926390901208	1.0	17.0	1377310.9991	False		False	7.0	0.0	388.0
01	ses-028	19	images_fmri/steak/steak_05s.jpg	seen	7205	601	5	None	1545.0	21828.0	5.0	seen-between	2	4	83.46	2.98	False	True	83.45023580803536	86.43359207897447	[['x', 84.87811241601594]]	-1.0	unseen	True	False	1.4181124160159442	2.983356270939112	1.0	18.0	1377315.4625	False		False	7.0	0.0	361.0
01	ses-028	20	images_fmri/moose/moose_05s.jpg	seen	4865	406	5	None	1019.0	14520.0	5.0	seen-between	2	4	87.92999999999998	2.98	False	False	87.93343900097534	90.89682761300357	[['b', 90.13405271503143]]	-1.0	unseen	True	False	2.204052715031452	2.963388612028212	1.0	19.0	1377319.9457	False		False	7.0	0.0	295.0
01	ses-028	21	images_fmri/brownie/brownie_05s.jpg	unseen	1037	87	5	None	205.0	3090.0	5.0	unseen-within	1	4	92.4	2.98	False	False	92.39682040386832	95.38060442800634	[['b', 93.7293354140129]]	-1.0	unseen	False	False	1.3293354140128884	2.983784024138004	1.0	20.0	1377324.4091	False		False			
01	ses-028	22	images_fmri/chair/chair_05s.jpg	unseen	1541	129	5	None	301.0	4387.0	5.0	unseen-between	1	4	96.87	2.98	True	True	96.8690724479966	99.8470511280466	[['x', 99.31267923000269]]	-1.0	unseen	False	False	2.442679230002682	2.9779786800500005	1.0	21.0	1377328.8813	False		False			
01	ses-028	23	images_fmri/shaving_cream/shaving_cream_05s.jpg	unseen	6617	552	5	None	1411.0	20028.0	5.0	unseen-within	1	4	101.34	2.98	False	True	101.32999505801126	104.31327965506352	[['x', 103.72617532592267]]	-1.0	unseen	False	False	2.386175325922665	2.983284597052261	1.0	22.0	1377333.3423	False		False			
01	ses-028	24	images_fmri/iceskate/iceskate_05s.jpg	seen	3905	326	5	None	824.0	11780.0	5.0	seen-between-within	3	4	105.81	2.98	False	False	105.81332267890684	108.78090741392224	[['x', 107.49495684402063]]	2.0	seen	False	True	1.6849568440206326	2.967584735015407	1.0	23.0	1377337.8256	False		False	0.0	1080.469100000104	172.0
01	ses-028	25	images_fmri/turtle/turtle_05n.jpg	seen	8057	672	5	None	1737.0	24478.0	5.0	seen-within	2	4	110.28	2.98	False	False	110.28458360186778	113.2474261969328	[['x', 111.40944937290624]]	2.0	seen	False	True	1.1294493729062367	2.962842595065013	1.0	24.0	1377342.2968	False		False	0.0	456.45589999994263	80.0
01	ses-028	26	images_fmri/punching_bag/punching_bag_05s.jpg	seen	6029	503	5	None	1257.0	17906.0	5.0	seen-within	2	4	114.75	2.98	True	False	114.75058155390434	117.72961223497988	[['x', 115.8920591189526]]	2.0	seen	False	True	1.142059118952602	2.9790306810755283	1.0	25.0	1377346.7628	False		False	0.0	53.648700000019744	12.0
01	ses-028	27	images_fmri/broom/broom_05s.jpg	unseen	1025	86	5	None	204.0	3078.0	5.0	unseen-within	1	4	119.22	2.98	False	False	119.21804433502255	122.19700507307424	[['b', 122.08336119703017]]	-1.0	unseen	False	False	2.863361197030173	2.9789607380516827	1.0	26.0	1377351.2303	False		False			
01	ses-028	28	images_fmri/monkey/monkey_05s.jpg	seen	4853	405	5	None	1018.0	14501.0	5.0	seen-between	2	4	123.69	2.98	True	True	123.67984235705808	126.66680827597156	[['x', 127.10996346105821]]	-1.0	unseen	True	False	3.4199634610582166	2.986965918913484	1.0	27.0	1377355.6921	False		False	7.0	0.0	253.0
01	ses-028	29	images_fmri/marijuana/marijuana_05s.jpg	unseen	4637	387	5	None	975.0	13899.0	5.0	unseen-between	1	4	128.16	2.98	True	False	128.1628554139752	131.12951750098728	[['b', 129.51709495694377]]	-1.0	unseen	False	False	1.3570949569437687	2.9666620870120823	1.0	28.0	1377360.1751	False		False			
01	ses-028	30	images_fmri/extinguisher/extinguisher_05s.jpg	seen	2801	234	5	None	564.0	8163.0	5.0	seen-within-between	3	4	132.63	2.98	True	True	132.63348607090302	135.61272237007506	[['x', 135.4612936959602]]	-1.0	unseen	True	False	2.8312936959601984	2.979236299172044	1.0	29.0	1377364.6457	False		False	7.0	0.0	405.0
01	ses-028	31	images_fmri/bobsled/bobsled_05s.jpg	seen	821	69	5	None	156.0	2384.0	5.0	seen-within-between	3	4	137.1	2.98	True	True	137.09867994696833	140.0837225818541	[['x', 140.4277707170695]]	-1.0	unseen	True	False	3.3277707170695123	2.985042634885758	1.0	30.0	1377369.1109	False		False	7.0	0.0	314.0
01	ses-028	32	images_fmri/lock/lock_05s.jpg	seen	4493	375	5	None	941.0	13434.0	5.0	seen-within	2	4	141.57	2.98	True	False	141.56304650986567	144.5456935770344	[['x', 142.8112220838666]]	2.0	seen	False	True	1.241222083866603	2.9826470671687275	1.0	31.0	1377373.5753	False		False	0.0	1017.876099999994	158.0
01	ses-028	33	images_fmri/brownie/brownie_05s.jpg	seen	1037	87	5	None	205.0	3090.0	5.0	seen-within	2	4	146.04	2.98	False	True	146.03429424390197	149.01284790295176	[['b', 147.0890393529553]]	2.0	seen	False	True	1.0490393529553046	2.978553659049794	1.0	32.0	1377378.0466	False		False	0.0	53.637499999953434	12.0
01	ses-028	34	images_fmri/clarinet/clarinet_05n.jpg	seen	1781	149	5	None	351.0	5079.0	5.0	seen-between	2	4	150.51	2.98	True	False	150.51614976092242	153.48157101892866	[['b', 153.1269180770032]]	-1.0	unseen	True	False	2.61691807700322	2.965421258006245	1.0	33.0	1377382.5284	False		False	7.0	0.0	489.0
01	ses-028	35	images_fmri/blimp/blimp_05s.jpg	seen	737	62	5	None	140.0	2133.0	5.0	seen-between-within	3	4	154.98	2.98	False	True	154.97889789799228	157.96199802705087	[['b', 156.5901419678703]]	2.0	seen	False	True	1.6101419678703053	2.983100129058585	1.0	34.0	1377386.9912	False		False	0.0	699.6999999999534	110.0
01	ses-028	36	images_fmri/zucchini/zucchini_05s.jpg	unseen	8633	720	5	None	1854.0	26099.0	5.0	unseen-within	1	4	159.45	2.98	True	False	159.45006979396567	162.42868355102837	[['b', 160.77234815293923]]	-1.0	unseen	False	False	1.3223481529392416	2.978613757062704	1.0	35.0	1377391.4623	False		False			
01	ses-028	37	images_fmri/shaving_cream/shaving_cream_05s.jpg	seen	6617	552	5	None	1411.0	20028.0	5.0	seen-within	2	4	163.92	2.98	False	False	163.91667117294855	166.89528480591252	[['x', 165.24375225207768]]	2.0	seen	False	True	1.3237522520776963	2.9786136329639703	1.0	36.0	1377395.9289	False		False	0.0	62.58660000003874	14.0
01	ses-028	38	images_fmri/steamroller/steamroller_05n.jpg	seen	7217	602	5	None	1546.0	21843.0	5.0	seen-within	2	4	168.39	2.98	True	False	168.38061282690614	171.3666592470836	[['x', 169.24584332597442]]	2.0	seen	False	True	0.8558433259744334	2.986046420177445	1.0	37.0	1377400.3929	False		False	0.0	129.627000000095	29.0
01	ses-028	39	images_fmri/onion/onion_05s.jpg	seen	5177	432	5	None	1078.0	15330.0	5.0	seen-between	2	4	172.86	2.98	True	True	172.86512862402014	175.83100353903137	[['x', 174.24458050890826]]	-1.0	unseen	True	False	1.3845805089082432	2.965874915011227	1.0	38.0	1377404.8774	False		False	7.0	0.0	367.0
01	ses-028	40	images_fmri/clarinet/clarinet_05n.jpg	seen	1781	149	5	None	351.0	5079.0	5.0	seen-between-within	3	4	177.32999999999996	2.98	False	False	177.33270063903183	180.31167449685745	[['x', 178.39189621596597]]	2.0	seen	False	True	1.0618962159660157	2.978973857825622	1.0	39.0	1377409.3450	False		False	0.0	26.816600000020117	6.0
01	ses-028	41	images_fmri/gargoyle/gargoyle_05s.jpg	seen	3173	265	5	None	658.0	9450.0	5.0	seen-between	2	4	181.8	2.98	False	False	181.7997887248639	184.77804655698128	[['b', 184.0899156020023]]	-1.0	unseen	True	False	2.289915602002281	2.9782578321173787	1.0	40.0	1377413.8120	False		False	7.0	0.0	260.0
01	ses-028	42	images_fmri/handcuff/handcuff_05s.jpg	seen	3641	304	5	None	747.0	10699.0	5.0	seen-between-within	3	4	186.27	2.98	False	False	186.26551657402888	189.24528804398145	[['x', 187.67492830008268]]	2.0	seen	False	True	1.404928300082673	2.9797714699525386	1.0	41.0	1377418.2778	False		False	0.0	389.3911000001244	65.0
01	ses-028	43	images_fmri/gargoyle/gargoyle_05s.jpg	seen	3173	265	5	None	658.0	9450.0	5.0	seen-between-within	3	4	190.74	2.98	True	True	190.73129490297288	193.71405367203988	[['b', 192.3838227118831]]	2.0	seen	False	True	1.6438227118831037	2.9827587690670043	1.0	42.0	1377422.7436	False		False	0.0	8.931600000010803	2.0
01	ses-028	44	images_fmri/monkey/monkey_05s.jpg	seen	4853	405	5	None	1018.0	14501.0	5.0	seen-between-within	3	4	195.21	2.98	False	True	195.2146965649445	198.17799036204812	[['b', 197.02644387586042]]	2.0	seen	False	True	1.816443875860415	2.963293797103688	1.0	43.0	1377427.2270	False		False	0.0	71.53489999985322	16.0
01	ses-028	45	images_fmri/cup/cup_05s.jpg	seen	2297	192	5	None	461.0	6677.0	5.0	seen-between-within	3	4	199.68	2.98	False	True	199.68089007399976	202.66102838492952	[['b', 200.8379497588612]]	2.0	seen	False	True	1.157949758861207	2.9801383109297603	1.0	44.0	1377431.6931	False		False	0.0	527.968499999959	96.0
01	ses-028	46	images_fmri/fudge/fudge_05s.jpg	seen	3137	262	5	None	648.0	9325.0	5.0	seen-between-within	3	4	204.15	2.98	True	True	204.14876153692603	207.1273419689387	[['b', 207.04762238287367]]	2.0	seen	False	True	2.897622382873664	2.978580432012677	1.0	45.0	1377436.1610	False		False	0.0	125.16190000018105	28.0
01	ses-028	47	images_fmri/cabbage/cabbage_05s.jpg	unseen	1205	101	5	None	233.0	3471.0	5.0	unseen-between	1	4	208.62	2.98	True	False	208.6134878708981	211.59430908993815	[['b', 210.92376420088112]]	-1.0	unseen	False	False	2.303764200881119	2.980821219040081	1.0	46.0	1377440.6257	False		False			
01	ses-028	48	images_fmri/pecan/pecan_05s.jpg	seen	5441	454	5	None	1136.0	16171.0	5.0	seen-between	2	4	213.09	2.98	True	False	213.08127648290247	216.0656231699977							2.98434668709524	1.0	47.0	1377445.0935	False		False	7.0	0.0	402.0
01	ses-028	49	images_fmri/refrigerator/refrigerator_05s.jpg	seen	6209	518	5	None	1301.0	18521.0	5.0	seen-within	2	4	217.56	2.98	True	False	217.56061073206365	220.5270147288684	[['x', 219.0514206760563]]	2.0	seen	False	True	1.4914206760562934	2.966403996804729	1.0	48.0	1377449.5729	False		False	0.0	214.5594000001438	48.0
01	ses-028	50	images_fmri/broom/broom_05s.jpg	seen	1025	86	5	None	204.0	3078.0	5.0	seen-within	2	4	222.03	2.98	True	False	222.03121600998568	225.0145287900232	[['x', 222.94567176885903]]	2.0	seen	False	True	0.9156717688590276	2.9833127800375223	1.0	49.0	1377454.0435	False		False	0.0	102.81319999997504	23.0
01	ses-028	51	images_fmri/urinal/urinal_05s.jpg	seen	8153	680	5	None	1749.0	24649.0	5.0	seen-within	2	4	226.5	2.98	False	False	226.49807338695973	229.48204847588204	[['x', 227.3806547569111]]	2.0	seen	False	True	0.880654756911099	2.983975088922307	1.0	50.0	1377458.5103	False		False	0.0	766.7526000000071	125.0
01	ses-028	52	images_fmri/lamp/lamp_05s.jpg	unseen	4217	352	5	None	892.0	12773.0	5.0	unseen-within	1	4	230.97	2.98	True	False	230.96581172407605	233.94335034000687	[['b', 233.82721329689957]]	-1.0	unseen	False	False	2.857213296899573	2.977538615930825	1.0	51.0	1377462.9781	False		False			
01	ses-028	53	images_fmri/gravel/gravel_05n.jpg	unseen	3437	287	5	None	710.0	10187.0	5.0	unseen-between	1	4	235.44	2.98	True	True	235.44340229406956	238.40993608604185	[['x', 238.1016748540569]]	-1.0	unseen	False	False	2.661674854056912	2.9665337919723243	1.0	52.0	1377467.4557	False		False			
01	ses-028	54	images_fmri/altar/altar_05s.jpg	seen	77	7	5	None	17.0	236.0	5.0	seen-within-between	3	4	239.91	2.98	True	False	239.9134966910351	242.8807268480305	[['x', 243.10443343105726]]	2.0	seen	False	True	3.194433431057263	2.967230156995356	1.0	53.0	1377471.9258	False		False	7.0	0.0	536.0
01	ses-028	55	images_fmri/tree/tree_05s.jpg	unseen	7985	666	5	None	1709.0	24106.0	5.0	unseen-between	1	4	244.38	2.98	False	False	244.37659828807227	247.36017098394225	[['b', 245.46711406600662]]	-1.0	unseen	False	False	1.0871140660066203	2.9835726958699524	1.0	54.0	1377476.3889	False		False			
01	ses-028	56	images_fmri/chip/chip_05s.jpg	seen	1721	144	5	None	334.0	4828.0	5.0	seen-between	2	4	248.85	2.98	False	True	248.8482818119228	251.8265571340453	[['x', 250.344316147035]]	-1.0	unseen	True	False	1.4943161470349935	2.9782753221225	1.0	55.0	1377480.8605	False		False	7.0	0.0	303.0
01	ses-028	57	images_fmri/zucchini/zucchini_05s.jpg	seen	8633	720	5	None	1854.0	26099.0	5.0	seen-within	2	4	253.32	2.98	False	False	253.3142659170553	256.297105433885	[['x', 254.18261678307317]]	2.0	seen	False	True	0.8626167830731788	2.9828395168296997	1.0	56.0	1377485.3265	False		False	0.0	93.86419999995269	21.0
01	ses-028	58	images_fmri/velcro/velcro_05s.jpg	seen	8189	683	5	None	1757.0	24766.0	5.0	seen-within-between	3	4	257.79	2.98	False	True	257.7950358588714	260.7637544858735	[['a', 261.0780245529022]]	1.0	seen	False	False	3.2880245529021863	2.96871862700209	1.0	57.0	1377489.8073	False		False	7.0	0.0	371.0
01	ses-028	59	images_fmri/lasagna/lasagna_05s.jpg	seen	4253	355	5	None	899.0	12869.0	5.0	seen-within-between	3	4	262.26	2.98	True	True	262.2592801230494	265.2427810910158	[['x', 265.1631710920483]]	-1.0	unseen	True	False	2.9031710920482965	2.9835009679663926	1.0	58.0	1377494.2715	False		False	7.0	0.0	312.0
01	ses-028	60	images_fmri/spoon/spoon_05n.jpg	seen	7085	591	5	None	1520.0	21489.0	5.0	seen-between-within	3	4	266.73	2.98	False	True	266.7258521199692	269.71381464088336	[['b', 270.23799990606494], ['b', 270.5239216790069]]	2.0	seen	False	True	3.5079999060649243	2.9879625209141523	1.0	59.0	1377498.7381	False		False	0.0	1353.1341999999713	233.0
