subject	session	TrialNumber	image_path	condition	image_nr	category_nr	exemplar_nr	test_image_nr	things_category_nr	things_image_nr	things_exemplar_nr	subcondition	repetition	run	onset	duration	response_mapping_flip_h	response_mapping_flip_v	onset_flip	offset_flip	keypresses	response	response_txt	error	response_confidence	response_time	duration_flip	ran	order	session_trial_time	atypical	atypical_log	exclude_session	delay_days	delay_seconds	trials_since_lastrep
01	ses-028	1	images_fmri/lamp/lamp_05s.jpg	seen	4217	352	5	None	892.0	12773.0	5.0	seen-within	2	5	3.0	2.98	False	True	3.001690344884992	5.968293892918155	[['b', 4.296718226978555]]	2.0	seen	False	True	1.296718226978555	2.966603548033163	1.0	0.0	1377605.5530	False		False	0.0	142.5749000001233	9.0
01	ses-028	2	images_fmri/wallet/wallet_05s.jpg	seen	8273	690	5	None	1777.0	25051.0	5.0	seen-within-between	3	5	7.47	2.98	False	False	7.471761772874743	10.453760258853436	[['b', 8.479458797955886]]	-1.0	unseen	True	False	1.0094587979558858	2.9819984859786928	1.0	1.0	1377610.0231	False		False	7.0	0.0	295.0
01	ses-028	3	images_fmri/tattoo/tattoo_05s.jpg	unseen	7577	632	5	None	1630.0	23015.0	5.0	unseen-within	1	5	11.94	2.98	False	False	11.940012554870918	14.917577396845443	[['b', 14.413216320797801]]	-1.0	unseen	False	False	2.473216320797801	2.977564841974526	1.0	2.0	1377614.4913	False		False			
01	ses-028	4	images_fmri/steak/steak_05s.jpg	seen	7205	601	5	None	1545.0	21828.0	5.0	seen-between-within	3	5	16.41	2.98	True	True	16.40522394492291	19.387189936824143	[['b', 17.784443038981408]]	2.0	seen	False	True	1.3744430389814075	2.981965991901234	1.0	3.0	1377618.9565	False		False	0.0	303.4940000001807	45.0
01	ses-028	5	images_fmri/anvil/anvil_05s.jpg	unseen	173	15	5	None	29.0	396.0	5.0	unseen-between	1	5	20.88	2.98	True	True	20.871427391888574	23.85088721686043	[['x', 23.502754853805527]]	-1.0	unseen	False	False	2.622754853805528	2.9794598249718547	1.0	4.0	1377623.4227	False		False			
01	ses-028	6	images_fmri/noodle/noodle_05s.jpg	unseen	5081	424	5	None	1062.0	15110.0	5.0	unseen-within	1	5	25.35	2.98	False	True	25.350637084804475	28.31746432883665	[['x', 26.72548007289879]]	-1.0	unseen	False	False	1.3754800728987888	2.9668272440321743	1.0	5.0	1377627.9019	False		False			
01	ses-028	7	images_fmri/bottle/bottle_05s.jpg	seen	869	73	5	None	171.0	2600.0	5.0	seen-within-between	3	5	29.82	2.98	True	True	29.819435895886272	32.80323415598832	[['y', 32.96822685794905]]	1.0	seen	False	False	3.148226857949048	2.9837982601020485	1.0	6.0	1377632.3707	False		False	7.0	0.0	263.0
01	ses-028	8	images_fmri/face/face_05s.jpg	seen	2837	237	5	None	570.0	8248.0	5.0	seen-within	2	5	34.29	2.98	True	True	34.28651676187292	37.26967500895262	[['b', 36.35394260380417]]	2.0	seen	False	True	2.063942603804172	2.9831582470797	1.0	7.0	1377636.8378	False		False	0.0	1504.6454000000376	244.0
01	ses-028	9	images_fmri/caterpillar/caterpillar_05s.jpg	seen	1493	125	5	None	287.0	4190.0	5.0	seen-between	2	5	38.76	2.98	True	True	38.7545393879991	41.73636487894692	[['x', 40.89278404484503]]	-1.0	unseen	True	False	2.132784044845032	2.981825490947813	1.0	8.0	1377641.3058	False		False	7.0	0.0	345.0
01	ses-028	10	images_fmri/beaker/beaker_05n.jpg	unseen	473	40	5	None	102.0	1532.0	5.0	unseen-within	1	5	43.23	2.98	True	False	43.22117890883237	46.20290885097347	[['b', 45.761116278823465]]	-1.0	unseen	False	False	2.531116278823468	2.9817299421411008	1.0	9.0	1377645.7725	False		False			
01	ses-028	11	images_fmri/syrup/syrup_05s.jpg	seen	7445	621	5	None	1606.0	22688.0	5.0	seen-between	2	5	47.7	2.98	True	True	47.70338426996023	50.67149280081503	[['x', 49.224256408866495]]	-1.0	unseen	True	False	1.524256408866492	2.9681085308548063	1.0	10.0	1377650.2547	False		False	7.0	0.0	474.0
01	ses-028	12	images_fmri/taco/taco_05s.jpg	seen	7505	626	5	None	1614.0	22792.0	5.0	seen-between	2	5	52.17	2.98	True	True	52.16947725298815	55.14975180081092	[['x', 53.823367898818105]]	-1.0	unseen	True	False	1.6533678988181038	2.980274547822773	1.0	11.0	1377654.7208	False		False	7.0	0.0	443.0
01	ses-028	13	images_fmri/blender/blender_05s.jpg	unseen	725	61	5	None	139.0	2119.0	5.0	unseen-between	1	5	56.64	2.98	False	False	56.63686284399592	59.62124385382049	[['b', 57.59400270599872]]	-1.0	unseen	False	False	0.9540027059987182	2.984381009824574	1.0	12.0	1377659.1882	False		False			
01	ses-028	14	images_fmri/chip/chip_05s.jpg	seen	1721	144	5	None	334.0	4828.0	5.0	seen-between-within	3	5	61.11	2.98	True	False	61.10252933483571	64.08289398881607	[['x', 62.91295212181285]]	2.0	seen	False	True	1.8029521218128508	2.9803646539803594	1.0	13.0	1377663.6538	False		False	0.0	182.79330000001937	18.0
01	ses-028	15	images_fmri/spout/spout_05s.jpg	seen	7097	592	5	None	1521.0	21502.0	5.0	seen-within-between	3	5	65.58	2.98	True	False	65.58748118183576	68.55410131183453	[['b', 69.14136525895447]]	-1.0	unseen	True	False	3.561365258954467	2.9666201299987733	1.0	14.0	1377668.1388	False		False	7.0	0.0	512.0
01	ses-028	16	images_fmri/silverware/silverware_05s.jpg	seen	6773	565	5	None	1446.0	20507.0	5.0	seen-within-between	3	5	70.05	2.98	False	False	70.05168763687834	73.03280687495135	[['b', 71.31914825295098]]	-1.0	unseen	True	False	1.269148252950984	2.9811192380730063	1.0	15.0	1377672.6030	False		False	7.0	0.0	401.0
01	ses-028	17	images_fmri/boat/boat_05s.jpg	seen	809	68	5	None	155.0	2369.0	5.0	seen-within-between	3	5	74.52	2.98	False	True	74.52140512387268	77.50190137978643	[['x', 76.07644798699766]]	-1.0	unseen	True	False	1.556447986997668	2.9804962559137493	1.0	16.0	1377677.0727	False		False	7.0	0.0	467.0
01	ses-028	18	images_fmri/uniform/uniform_05s.jpg	unseen	8141	679	5	None	1748.0	24633.0	5.0	unseen-within	1	5	78.99	2.98	False	True	78.98819141392596	81.96614038292319	[['x', 81.0818473668769]]	-1.0	unseen	False	False	2.0918473668769053	2.977948968997225	1.0	17.0	1377681.5395	False		False			
01	ses-028	19	images_fmri/shoe/shoe_05s.jpg	seen	6689	558	5	None	1424.0	20196.0	5.0	seen-between	2	5	83.46	2.98	True	False	83.45534215588123	86.43523858487606	[['b', 84.58801081683487]]	-1.0	unseen	True	False	1.1280108168348733	2.9798964289948344	1.0	18.0	1377686.0066	False		False	7.0	0.0	410.0
01	ses-028	20	images_fmri/noodle/noodle_05s.jpg	seen	5081	424	5	None	1062.0	15110.0	5.0	seen-within	2	5	87.92999999999998	2.98	False	True	87.93530027777888	90.90097614983095	[['b', 88.93714211694896]]	2.0	seen	False	True	1.0071421169489838	2.9656758720520884	1.0	19.0	1377690.4866	False		False	0.0	62.584700000006706	14.0
01	ses-028	21	images_fmri/watch/watch_05s.jpg	seen	8369	698	5	None	1787.0	25187.0	5.0	seen-within-between	3	5	92.4	2.98	False	True	92.40415804181248	95.38467021100224	[['x', 93.57620014087297]]	-1.0	unseen	True	False	1.1762001408729643	2.980512169189751	1.0	20.0	1377694.9555	False		False	7.0	0.0	455.0
01	ses-028	22	images_fmri/shrimp/shrimp_05s.jpg	seen	6749	563	5	None	1439.0	20405.0	5.0	seen-within-between	3	5	96.87	2.98	True	False	96.86994053679518	99.84892919287086	[['b', 98.16002902691253]]	-1.0	unseen	True	False	1.2900290269125207	2.9789886560756718	1.0	21.0	1377699.4212	False		False	7.0	0.0	455.0
01	ses-028	23	images_fmri/beaker/beaker_05n.jpg	seen	473	40	5	None	102.0	1532.0	5.0	seen-within	2	5	101.34	2.98	False	True	101.3335639408324	104.3180571948178	[['b', 102.73873330885544]]	2.0	seen	False	True	1.3987333088554408	2.98449325398542	1.0	22.0	1377703.8849	False		False	0.0	58.11239999998361	13.0
01	ses-028	24	images_fmri/tweezers/tweezers_05s.jpg	seen	8081	674	5	None	1740.0	24526.0	5.0	seen-between	2	5	105.81	2.98	False	True	105.800222662976	108.78541582892647	[['x', 109.26197107695043]]	-1.0	unseen	True	False	3.4519710769504286	2.985193165950477	1.0	23.0	1377708.3515	False		False	7.0	0.0	456.0
01	ses-028	25	images_fmri/tweezers/tweezers_05s.jpg	seen	8081	674	5	None	1740.0	24526.0	5.0	seen-between-within	3	5	110.28	2.98	True	True	110.28194597689436	113.24830688582732	[['b', 111.53022206178866]]	2.0	seen	False	True	1.250222061788662	2.966360908932984	1.0	24.0	1377712.8333	False		False	0.0	4.481799999950454	1.0
01	ses-028	26	images_fmri/dress/dress_05s.jpg	seen	2597	217	5	None	519.0	7531.0	5.0	seen-between-within	3	5	114.75	2.98	True	True	114.75486830994488	117.73178079980426	[['b', 115.95013510482386]]	2.0	seen	False	True	1.2001351048238575	2.9769124898593877	1.0	25.0	1377717.3062	False		False	0.0	1406.3181000000332	222.0
01	ses-028	27	images_fmri/stove1/stove1_05s.jpg	unseen	7265	606	5	None	1564.0	22087.0	5.0	unseen-between	1	5	119.22	2.98	False	False	119.21949461195618	122.20117277186364	[['b', 120.77572632092051]]	-1.0	unseen	False	False	1.5557263209205132	2.98167815990746	1.0	26.0	1377721.7708	False		False			
01	ses-028	28	images_fmri/caterpillar/caterpillar_05s.jpg	seen	1493	125	5	None	287.0	4190.0	5.0	seen-between-within	3	5	123.69	2.98	True	True	123.68585804197936	126.6681210398674	[['b', 124.85088099585846]]	2.0	seen	False	True	1.160880995858463	2.9822629978880286	1.0	27.0	1377726.2372	False		False	0.0	84.93140000011772	19.0
01	ses-028	29	images_fmri/taco/taco_05s.jpg	seen	7505	626	5	None	1614.0	22792.0	5.0	seen-between-within	3	5	128.16	2.98	False	True	128.1527503267862	131.132265180815	[['b', 129.4223046968691]]	2.0	seen	False	True	1.2623046968691083	2.979514854028821	1.0	28.0	1377730.7041	False		False	0.0	75.98329999996349	17.0
01	ses-028	30	images_fmri/tattoo/tattoo_05s.jpg	seen	7577	632	5	None	1630.0	23015.0	5.0	seen-within	2	5	132.63	2.98	False	True	132.63582111988217	135.6015042739455	[['b', 133.91463540587574]]	2.0	seen	False	True	1.284635405875747	2.9656831540632997	1.0	29.0	1377735.1871	False		False	0.0	120.69579999987036	27.0
01	ses-028	31	images_fmri/moth/moth_05n.jpg	seen	4913	410	5	None	1024.0	14589.0	5.0	seen-between-within	3	5	137.1	2.98	False	False	137.10245506395586	140.08136146282777	[['x', 139.0386723189149]]	2.0	seen	False	True	1.9386723189149109	2.9789063988719136	1.0	30.0	1377739.6538	False		False	0.0	643.722400000086	99.0
01	ses-028	32	images_fmri/ship/ship_05s.jpg	unseen	6665	556	5	None	1422.0	20171.0	5.0	unseen-within	1	5	141.57	2.98	True	False	141.56922118877992	144.54769423184916	[['b', 142.90669545088895]]	-1.0	unseen	False	False	1.3366954508889537	2.9784730430692434	1.0	31.0	1377744.1205	False		False			
01	ses-028	33	images_fmri/toothpick/toothpick_05s.jpg	unseen	7841	654	5	None	1682.0	23736.0	5.0	unseen-between	1	5	146.04	2.98	True	True	146.03548620687798	149.01423278381117	[['x', 148.43157615792006]]	-1.0	unseen	False	False	2.3915761579200705	2.9787465769331902	1.0	32.0	1377748.5868	False		False			
01	ses-028	34	images_fmri/ship/ship_05s.jpg	seen	6665	556	5	None	1422.0	20171.0	5.0	seen-within	2	5	150.51	2.98	True	False	150.50095221982338	153.48357095080428	[['x', 151.81990637490526]]	2.0	seen	False	True	1.3099063749052675	2.982618730980903	1.0	33.0	1377753.0523	False		False	0.0	8.931800000136718	2.0
01	ses-028	35	images_fmri/ladle/ladle_05s.jpg	seen	4205	351	5	None	888.0	12713.0	5.0	seen-between	2	5	154.98	2.98	False	True	154.98431252199225	157.947737790877	[['x', 156.52662811381742]]	-1.0	unseen	True	False	1.5466281138174338	2.963425268884748	1.0	34.0	1377757.5356	False		False	7.0	0.0	488.0
01	ses-028	36	images_fmri/treadmill/treadmill_05s.jpg	seen	7973	665	5	None	1707.0	24076.0	5.0	seen-within	2	5	159.45	2.98	True	True	159.45140205090863	162.43065621284768	[['b', 160.6056765159592]]	2.0	seen	False	True	1.1556765159592146	2.979254161939025	1.0	35.0	1377762.0027	False		False	0.0	840.3948000001255	143.0
01	ses-028	37	images_fmri/grate/grate_05s.jpg	seen	3425	286	5	None	708.0	10158.0	5.0	seen-between	2	5	163.92	2.98	False	False	163.91778747178614	166.8972605918534	[['b', 166.70865217177197]]	-1.0	unseen	True	False	2.788652171771986	2.9794731200672686	1.0	36.0	1377766.4691	False		False	7.0	0.0	594.0
01	ses-028	38	images_fmri/canvas/canvas_05s.jpg	unseen	1397	117	5	None	265.0	3899.0	5.0	unseen-within	1	5	168.39	2.98	False	True	168.38305811188184	171.36690527386963	[['x', 170.53837792784907]]	-1.0	unseen	False	False	2.148377927849083	2.9838471619877964	1.0	37.0	1377770.9344	False		False			
01	ses-028	39	images_fmri/crayon/crayon_05s.jpg	seen	2165	181	5	None	436.0	6302.0	5.0	seen-within	2	5	172.86	2.98	False	False	172.8512465658132	175.83012969698757	[['x', 175.08547582291067]]	2.0	seen	False	True	2.225475822910653	2.97888313117437	1.0	38.0	1377775.4026	False		False	0.0	495.6891999999061	88.0
01	ses-028	40	images_fmri/banana_split/banana_split_05s.jpg	seen	365	31	5	None	66.0	982.0	5.0	seen-between-within	3	5	177.32999999999996	2.98	True	True	177.33310167491436	180.30210270383395	[['b', 178.29845487582497]]	2.0	seen	False	True	0.9684548758250172	2.9690010289195925	1.0	39.0	1377779.8844	False		False	0.0	715.2325000001583	115.0
01	ses-028	41	images_fmri/bread/bread_05s.jpg	unseen	977	82	5	None	195.0	2948.0	5.0	unseen-between	1	5	181.8	2.98	False	True	181.8020570927765	184.78009368595667	[['x', 183.93520178995095]]	-1.0	unseen	False	False	2.135201789950941	2.97803659318015	1.0	40.0	1377784.3534	False		False			
01	ses-028	42	images_fmri/donkey/donkey_05n.jpg	seen	2513	210	5	None	505.0	7297.0	5.0	seen-between	2	5	186.27	2.98	True	True	186.2679128088057	189.2469778098166	[['x', 187.50959184393287]]	-1.0	unseen	True	False	1.2395918439328568	2.9790650010108948	1.0	41.0	1377788.8192	False		False	7.0	0.0	526.0
01	ses-028	43	images_fmri/grits/grits_05s.jpg	unseen	3473	290	5	None	718.0	10291.0	5.0	unseen-between	1	5	190.74	2.98	False	False	190.73365590791215	193.71598971891217	[['b', 193.38423952599987]]	-1.0	unseen	False	False	2.644239525999865	2.982333810999989	1.0	42.0	1377793.2850	False		False			
01	ses-028	44	images_fmri/donkey/donkey_05n.jpg	seen	2513	210	5	None	505.0	7297.0	5.0	seen-between-within	3	5	195.21	2.98	False	False	195.21319855586623	198.1796613468323	[['x', 196.2134256567806]]	2.0	seen	False	True	1.0034256567805926	2.966462790966034	1.0	43.0	1377797.7645	False		False	0.0	8.945300000021234	2.0
01	ses-028	45	images_fmri/lime/lime_05s.jpg	unseen	4397	367	5	None	931.0	13295.0	5.0	unseen-within	1	5	199.68	2.98	True	False	199.68265000381507	202.6630633068271	[['b', 201.26915871398523]]	-1.0	unseen	False	False	1.5891587139852277	2.9804133030120283	1.0	44.0	1377802.2340	False		False			
01	ses-028	46	images_fmri/asparagus/asparagus_05n.jpg	unseen	233	20	5	None	43.0	596.0	5.0	unseen-between	1	5	204.15	2.98	True	False	204.15019985684197	207.12964290590023	[['b', 205.03030804777518]]	-1.0	unseen	False	False	0.8803080477751735	2.979443049058318	1.0	45.0	1377806.7015	False		False			
01	ses-028	47	images_fmri/lime/lime_05s.jpg	seen	4397	367	5	None	931.0	13295.0	5.0	seen-within	2	5	208.62	2.98	False	False	208.61780006391928	211.59889738983475	[['x', 209.84533970197663]]	2.0	seen	False	True	1.2253397019766226	2.9810973259154707	1.0	46.0	1377811.1691	False		False	0.0	8.935100000118837	2.0
01	ses-028	48	images_fmri/candy_bar/candy_bar_05s.jpg	seen	1349	113	5	None	257.0	3786.0	5.0	seen-within	2	5	213.09	2.98	True	False	213.08428032393567	216.0625397239346	[['x', 215.462358080782]]	2.0	seen	False	True	2.372358080781993	2.978259399998933	1.0	47.0	1377815.6356	False		False	0.0	880.6129999998957	152.0
01	ses-028	49	images_fmri/projector/projector_05s.jpg	unseen	5969	498	5	None	1243.0	17678.0	5.0	unseen-between	1	5	217.56	2.98	True	True	217.5661165858619	220.53181934496388	[['x', 219.91920035379007]]	-1.0	unseen	False	False	2.3592003537900723	2.965702759101987	1.0	48.0	1377820.1174	False		False			
01	ses-028	50	images_fmri/tray/tray_05s.jpg	seen	7961	664	5	None	1706.0	24064.0	5.0	seen-within-between	3	5	222.03	2.98	False	False	222.03079397883263	225.01652548392303	[['b', 223.13993647578172]]	-1.0	unseen	True	False	1.1099364757817227	2.9857315050903708	1.0	49.0	1377824.5821	False		False	7.0	0.0	610.0
01	ses-028	51	images_fmri/lizard/lizard_05n.jpg	unseen	4457	372	5	None	938.0	13397.0	5.0	unseen-within	1	5	226.5	2.98	True	True	226.50075872289017	229.483538281871	[['x', 227.61117957695387]]	-1.0	unseen	False	False	1.111179576953873	2.982779558980837	1.0	50.0	1377829.0521	False		False			
01	ses-028	52	images_fmri/balloon/balloon_05s.jpg	unseen	329	28	5	None	61.0	900.0	5.0	unseen-between	1	5	230.97	2.98	False	False	230.9682467789389	233.9484746819362	[['b', 232.1770266799722]]	-1.0	unseen	False	False	1.2070266799721878	2.980227902997285	1.0	51.0	1377833.5196	False		False			
01	ses-028	53	images_fmri/earwig/earwig_05s.jpg	seen	2681	224	5	None	542.0	7868.0	5.0	seen-between-within	3	5	235.44	2.98	False	False	235.43256119382568	238.4147637179121	[['x', 238.0579718509689]]	2.0	seen	False	True	2.6179718509689	2.9822025240864605	1.0	52.0	1377837.9839	False		False	0.0	1137.2891999999993	185.0
01	ses-028	54	images_fmri/cassette/cassette_05s.jpg	seen	1469	123	5	None	284.0	4154.0	5.0	seen-within	2	5	239.91	2.98	True	False	239.915674805874	242.88394758780487	[['x', 241.1258238039445]]	2.0	seen	False	True	1.2158238039445166	2.968272781930864	1.0	53.0	1377842.4670	False		False	0.0	791.2304000000004	132.0
01	ses-028	55	images_fmri/starfish/starfish_05s.jpg	unseen	7193	600	5	None	1542.0	21783.0	5.0	unseen-between	1	5	244.38	2.98	False	False	244.3813836048357	247.36567390081476	[['b', 247.49530771491118]]	-1.0	unseen	False	False	3.1153077149111823	2.984290295979008	1.0	54.0	1377846.9327	False		False			
01	ses-028	56	images_fmri/clay/clay_05s.jpg	unseen	1793	150	5	None	353.0	5105.0	5.0	unseen-between	1	5	248.85	2.98	True	False	248.8449827379081	251.830681766849	[['b', 250.85979003389366]]	-1.0	unseen	False	False	2.0097900338936654	2.985699028940872	1.0	55.0	1377851.3963	False		False			
01	ses-028	57	images_fmri/grate/grate_05s.jpg	seen	3425	286	5	None	708.0	10158.0	5.0	seen-between-within	3	5	253.32	2.98	True	False	253.31561340484768	256.29985279985704	[['x', 254.5180636299774]]	2.0	seen	False	True	1.198063629977412	2.9842393950093538	1.0	56.0	1377855.8669	False		False	0.0	89.39779999991879	20.0
01	ses-028	58	images_fmri/bungee/bungee_05s.jpg	unseen	1133	95	5	None	222.0	3321.0	5.0	unseen-between	1	5	257.79	2.98	False	False	257.7832709599752	260.7615287560038	[['b', 259.3573831329122]]	-1.0	unseen	False	False	1.567383132912198	2.978257796028629	1.0	57.0	1377860.3346	False		False			
01	ses-028	59	images_fmri/canvas/canvas_05s.jpg	seen	1397	117	5	None	265.0	3899.0	5.0	seen-within	2	5	262.26	2.98	True	False	262.26495961798355	265.2288827279117	[['x', 263.34679139289074]]	2.0	seen	False	True	1.0867913928907456	2.963923109928146	1.0	58.0	1377864.8163	False		False	0.0	93.88190000015311	21.0
01	ses-028	60	images_fmri/ladle/ladle_05s.jpg	seen	4205	351	5	None	888.0	12713.0	5.0	seen-between-within	3	5	266.73	2.98	False	True	266.7320006028749	269.71439749887213	[['b', 267.5318787628785]]	2.0	seen	False	True	0.8018787628784594	2.9823968959972262	1.0	59.0	1377869.2833	False		False	0.0	111.74769999994896	25.0
